onset	duration	run_number	trial_number	att_task	bar_direction	bar_period	bar_step	stim_noise_ori	stim_stair_val	response_val	probe_time	reaction_time
23190.92518	1.5750112	2	1	1	9	1	1	3	n/a	n/a	n/a	n/a
23192.50019	1.5681606	2	2	1	9	1	2	3	n/a	n/a	n/a	n/a
23194.06835	1.5681279	2	3	1	9	1	3	3	n/a	n/a	n/a	n/a
23195.63648	1.5675881	2	4	1	9	1	4	3	n/a	n/a	n/a	n/a
23197.20406	1.5677697	2	5	1	9	1	5	3	n/a	n/a	n/a	n/a
23198.77183	1.5673525	2	6	1	9	1	6	3	n/a	n/a	n/a	n/a
23200.33919	1.5673341	2	7	1	9	1	7	3	n/a	n/a	n/a	n/a
23201.90652	1.5671827	2	8	1	9	1	8	3	n/a	n/a	n/a	n/a
23203.4737	1.5673362	2	9	1	9	1	9	3	n/a	n/a	n/a	n/a
23205.04104	1.5673667	2	10	1	9	1	10	3	n/a	n/a	n/a	n/a
23206.60841	1.5677496	2	11	1	9	1	11	3	n/a	n/a	n/a	n/a
23208.17616	1.5673287	2	12	1	9	1	12	3	n/a	n/a	n/a	n/a
23209.74348	1.5675143	2	13	1	1	2	1	1	3	n/a	23210.33128	n/a
23211.311	1.5679985	2	14	1	1	2	2	2	3	0	23211.89916	0.7017659
23212.879	1.5679284	2	15	1	1	2	3	1	4	0	23213.46674	0.7998324
23214.44693	1.5684464	2	16	1	1	2	4	1	5	1	23215.03556	0.8984582
23216.01537	1.5671833	2	17	1	1	2	5	1	5	1	23216.60304	0.8972683
23217.58256	1.5676175	2	18	1	1	2	6	1	5	n/a	23218.17048	n/a
23219.15017	1.5678782	2	19	1	1	2	7	2	5	1	23219.7382	0.8987175
23220.71805	1.5673526	2	20	1	1	2	8	2	4	0	23221.3059	0.8016785
23222.2854	1.5673623	2	21	1	1	2	9	2	5	1	23222.8732	0.8975969
23223.85277	1.5676669	2	22	1	1	2	10	2	5	0	23224.44077	0.7055455
23225.42043	1.5672221	2	23	1	1	2	11	2	6	0	23226.00819	0.7998534
23226.98765	1.5674592	2	24	1	1	2	12	2	7	n/a	23227.5753	n/a
23228.55511	1.5674442	2	25	1	1	2	13	1	7	1	23229.14282	0.7996533
23230.12256	1.567749	2	26	1	1	2	14	1	7	1	23230.71069	0.8973927
23231.69031	1.5672748	2	27	1	1	2	15	2	7	1	23232.27796	0.8984055
23233.25758	1.5675599	2	28	1	1	2	16	2	6	1	23233.84534	0.9009573
23234.82514	1.5676375	2	29	1	1	2	17	1	6	1	23235.41285	0.8003008
23236.39278	1.5672278	2	30	1	1	2	18	1	6	1	23236.98056	0.8968219
23237.96001	1.5671608	2	31	1	1	2	19	2	5	1	23238.54767	0.7019662
23239.52717	1.5673738	2	32	1	1	2	20	2	5	1	23240.11501	0.7994175
23241.09454	1.5673267	2	33	1	1	2	21	2	5	0	23241.6824	0.7994561
23242.66187	1.5670752	2	34	1	1	2	22	1	6	n/a	23243.24956	n/a
23244.22894	1.5673261	2	35	1	1	2	23	2	6	n/a	23244.81662	n/a
23245.79627	1.5673552	2	36	1	1	2	24	1	6	0	23246.384	0.8961389
23247.36363	1.5678504	2	37	1	9	3	1	3	n/a	n/a	n/a	n/a
23248.93148	1.5673229	2	38	1	9	3	2	3	n/a	n/a	n/a	n/a
23250.4988	1.5674306	2	39	1	9	3	3	3	n/a	n/a	n/a	n/a
23252.06623	1.56744	2	40	1	9	3	4	3	n/a	n/a	n/a	n/a
23253.63367	1.5675046	2	41	1	9	3	5	3	n/a	n/a	n/a	n/a
23255.20117	1.5673814	2	42	1	9	3	6	3	n/a	n/a	n/a	n/a
23256.76855	1.5670357	2	43	1	9	3	7	3	n/a	n/a	n/a	n/a
23258.33559	1.5672312	2	44	1	9	3	8	3	n/a	n/a	n/a	n/a
23259.90282	1.5674629	2	45	1	9	3	9	3	n/a	n/a	n/a	n/a
23261.47028	1.5671747	2	46	1	9	3	10	3	n/a	n/a	n/a	n/a
23263.03746	1.5670934	2	47	1	9	3	11	3	n/a	n/a	n/a	n/a
23264.60455	1.5673348	2	48	1	9	3	12	3	n/a	n/a	n/a	n/a
23266.17189	1.5677703	2	49	1	3	4	1	1	7	n/a	23266.75968	n/a
23267.73966	1.5676539	2	50	1	3	4	2	2	7	1	23268.32762	0.7985479
23269.30731	1.5675905	2	51	1	3	4	3	1	7	1	23269.89513	0.8965807
23270.8749	1.5684497	2	52	1	3	4	4	1	7	1	23271.46326	0.8979949
23272.44335	1.5678352	2	53	1	3	4	5	1	6	1	23273.03144	0.8002949
23274.01119	1.5673945	2	54	1	3	4	6	1	6	n/a	23274.59891	n/a
23275.57858	1.567993	2	55	1	3	4	7	2	6	1	23276.16676	0.8981931
23277.14657	1.5671179	2	56	1	3	4	8	2	6	1	23277.73419	0.8975013
23278.71369	1.5671651	2	57	1	3	4	9	1	5	1	23279.30136	0.896963
23280.28086	1.5680603	2	58	1	3	4	10	1	5	n/a	23280.86922	n/a
23281.84892	1.5674939	2	59	1	3	4	11	1	5	n/a	23282.43666	n/a
23283.41641	1.5677848	2	60	1	3	4	12	1	5	n/a	23284.00421	n/a
23284.9842	1.5670576	2	61	1	3	4	13	2	5	1	23285.57182	0.8979233
23286.55125	1.5672051	2	62	1	3	4	14	2	5	n/a	23287.13889	n/a
23288.11846	1.5674907	2	63	1	3	4	15	1	5	1	23288.70617	0.8979764
23289.68595	1.5674925	2	64	1	3	4	16	1	4	n/a	23290.27363	n/a
23291.25344	1.5682464	2	65	1	3	4	17	1	4	n/a	23291.84169	n/a
23292.82169	1.5681156	2	66	1	3	4	18	1	4	1	23293.40949	0.8975764
23294.3898	1.5679176	2	67	1	3	4	19	2	4	n/a	23294.97807	n/a
23295.95772	1.5679014	2	68	1	3	4	20	1	4	n/a	23296.54546	n/a
23297.52562	1.5673153	2	69	1	3	4	21	1	4	n/a	23298.11345	n/a
23299.09294	1.5675488	2	70	1	3	4	22	2	4	n/a	23299.68074	n/a
23300.66049	1.5679866	2	71	1	3	4	23	1	4	n/a	23301.24841	n/a
23302.22847	1.5673603	2	72	1	3	4	24	2	4	n/a	23302.81618	n/a
23303.79583	1.5674017	2	73	1	9	5	1	3	n/a	n/a	n/a	n/a
23305.36324	1.5672613	2	74	1	9	5	2	3	n/a	n/a	n/a	n/a
23306.9305	1.5672232	2	75	1	9	5	3	3	n/a	n/a	n/a	n/a
23308.49772	1.5677715	2	76	1	9	5	4	3	n/a	n/a	n/a	n/a
23310.06549	1.5674288	2	77	1	9	5	5	3	n/a	n/a	n/a	n/a
23311.63292	1.5671655	2	78	1	9	5	6	3	n/a	n/a	n/a	n/a
23313.20009	1.5672125	2	79	1	9	5	7	3	n/a	n/a	n/a	n/a
23314.7673	1.5672309	2	80	1	9	5	8	3	n/a	n/a	n/a	n/a
23316.33453	1.5671791	2	81	1	9	5	9	3	n/a	n/a	n/a	n/a
23317.90171	1.5671874	2	82	1	9	5	10	3	n/a	n/a	n/a	n/a
23319.4689	1.5674401	2	83	1	9	5	11	3	n/a	n/a	n/a	n/a
23321.03634	1.5678037	2	84	1	9	5	12	3	n/a	n/a	n/a	n/a
23322.60414	1.5675925	2	85	1	5	6	1	1	4	n/a	23323.19187	n/a
23324.17173	1.5684084	2	86	1	5	6	2	1	4	n/a	23324.75959	n/a
23325.74014	1.5681941	2	87	1	5	6	3	1	4	n/a	23326.32818	n/a
23327.30834	1.5678	2	88	1	5	6	4	1	4	n/a	23327.89629	n/a
23328.87614	1.5673608	2	89	1	5	6	5	1	4	n/a	23329.46386	n/a
23330.4435	1.5678198	2	90	1	5	6	6	2	4	n/a	23331.03178	n/a
23332.01132	1.5673025	2	91	1	5	6	7	2	4	n/a	23332.59914	n/a
23333.57862	1.5678218	2	92	1	5	6	8	1	4	n/a	23334.16648	n/a
23335.14644	1.5679184	2	93	1	5	6	9	1	4	1	23335.73438	0.8971664
23336.71436	1.5679666	2	94	1	5	6	10	2	4	1	23337.30219	0.898167
23338.28233	1.5680247	2	95	1	5	6	11	1	3	1	23338.87013	0.8975635
23339.85035	1.5682096	2	96	1	5	6	12	2	3	n/a	23340.43834	n/a
23341.41856	1.5673124	2	97	1	5	6	13	2	3	n/a	23342.0063	n/a
23342.98587	1.5674242	2	98	1	5	6	14	1	3	0	23343.57356	0.8973876
23344.5533	1.5674479	2	99	1	5	6	15	2	4	n/a	23345.14103	n/a
23346.12074	1.567682	2	100	1	5	6	16	2	4	n/a	23346.70872	n/a
23347.68843	1.5675566	2	101	1	5	6	17	1	4	1	23348.27637	0.89655
23349.25598	1.5678255	2	102	1	5	6	18	2	4	0	23349.84379	0.8970917
23350.82381	1.5675406	2	103	1	5	6	19	2	5	1	23351.41161	0.7011805
23352.39135	1.5674043	2	104	1	5	6	20	2	5	0	23352.97914	0.7994745
23353.95875	1.5676943	2	105	1	5	6	21	1	6	0	23354.54661	0.7991302
23355.52645	1.5673162	2	106	1	5	6	22	1	7	0	23356.11424	0.7992904
23357.09376	1.5672141	2	107	1	5	6	23	1	8	1	23357.68156	0.7000742
23358.66098	1.5673507	2	108	1	5	6	24	1	8	0	23359.24888	0.8956592
23360.22833	1.567278	2	109	1	9	7	1	3	n/a	n/a	n/a	n/a
23361.79561	1.567093	2	110	1	9	7	2	3	n/a	n/a	n/a	n/a
23363.3627	1.567223	2	111	1	9	7	3	3	n/a	n/a	n/a	n/a
23364.92992	1.5673824	2	112	1	9	7	4	3	n/a	n/a	n/a	n/a
23366.4973	1.567707	2	113	1	9	7	5	3	n/a	n/a	n/a	n/a
23368.06501	1.5675485	2	114	1	9	7	6	3	n/a	n/a	n/a	n/a
23369.63256	1.5677845	2	115	1	9	7	7	3	n/a	n/a	n/a	n/a
23371.20034	1.5673754	2	116	1	9	7	8	3	n/a	n/a	n/a	n/a
23372.76772	1.5677232	2	117	1	9	7	9	3	n/a	n/a	n/a	n/a
23374.33544	1.5681404	2	118	1	9	7	10	3	n/a	n/a	n/a	n/a
23375.90358	1.567704	2	119	1	9	7	11	3	n/a	n/a	n/a	n/a
23377.47129	1.5674816	2	120	1	9	7	12	3	n/a	n/a	n/a	n/a
23379.03877	1.5681036	2	121	1	7	8	1	2	9	1	23379.62667	0.6998391
23380.60687	1.5676275	2	122	1	7	8	2	2	9	1	23381.19464	0.7001875
23382.1745	1.5676709	2	123	1	7	8	3	1	9	1	23382.76236	0.8968859
23383.74217	1.5672306	2	124	1	7	8	4	1	8	n/a	23384.32983	n/a
23385.3094	1.5673265	2	125	1	7	8	5	1	8	n/a	23385.89711	n/a
23386.87673	1.5680424	2	126	1	7	8	6	2	8	n/a	23387.46458	n/a
23388.44477	1.5681772	2	127	1	7	8	7	2	8	n/a	23389.03276	n/a
23390.01295	1.5676403	2	128	1	7	8	8	2	8	n/a	23390.60092	n/a
23391.58059	1.5677495	2	129	1	7	8	9	1	8	1	23392.16837	0.8980659
23393.14834	1.5676266	2	130	1	7	8	10	1	8	n/a	23393.73614	n/a
23394.71596	1.5674173	2	131	1	7	8	11	1	8	1	23395.30383	0.8972256
23396.28338	1.5677937	2	132	1	7	8	12	2	8	n/a	23396.87147	n/a
23397.85118	1.5675216	2	133	1	7	8	13	2	8	n/a	23398.43893	n/a
23399.4187	1.5673093	2	134	1	7	8	14	2	8	1	23400.00638	0.8973503
23400.98601	1.5677236	2	135	1	7	8	15	2	7	1	23401.57379	0.8974899
23402.55373	1.5673238	2	136	1	7	8	16	1	7	1	23403.14143	0.8983307
23404.12105	1.567823	2	137	1	7	8	17	1	7	1	23404.70891	0.8978206
23405.68888	1.5674369	2	138	1	7	8	18	1	6	1	23406.27671	0.8966924
23407.25631	1.5674158	2	139	1	7	8	19	2	6	1	23407.84399	0.8975215
23408.82373	1.5674567	2	140	1	7	8	20	2	6	1	23409.4115	0.7997396
23410.39119	1.5672799	2	141	1	7	8	21	2	5	0	23410.97895	0.7989894
23411.95847	1.5678162	2	142	1	7	8	22	2	6	1	23412.54658	0.798568
23413.52628	1.5675758	2	143	1	7	8	23	2	6	0	23414.11415	0.896115
23415.09386	1.5678629	2	144	1	7	8	24	1	7	n/a	23415.68162	n/a
23416.66172	1.5675498	2	145	1	9	9	1	3	n/a	n/a	n/a	n/a
23418.22927	1.5681185	2	146	1	9	9	2	3	n/a	n/a	n/a	n/a
23419.79739	1.5677918	2	147	1	9	9	3	3	n/a	n/a	n/a	n/a
23421.36518	1.5674625	2	148	1	9	9	4	3	n/a	n/a	n/a	n/a
23422.93264	1.5672486	2	149	1	9	9	5	3	n/a	n/a	n/a	n/a
23424.49989	1.5671854	2	150	1	9	9	6	3	n/a	n/a	n/a	n/a
23426.06708	1.5671789	2	151	1	9	9	7	3	n/a	n/a	n/a	n/a
23427.63426	1.5678568	2	152	1	9	9	8	3	n/a	n/a	n/a	n/a
23429.20211	1.5674643	2	153	1	9	9	9	3	n/a	n/a	n/a	n/a
23430.76958	1.567697	2	154	1	9	9	10	3	n/a	n/a	n/a	n/a
23432.33727	1.567628	2	155	1	9	9	11	3	n/a	n/a	n/a	n/a
23433.9049	1.5674025	2	156	1	9	9	12	3	n/a	n/a	n/a	n/a
