onset	duration	run_number	trial_number	att_task	bar_direction	bar_period	bar_step	stim_noise_ori	stim_stair_val	response_val	probe_time	reaction_time
82187.69577	1.723994329	1	1	1	9	1	1	3	n/a	n/a	n/a	n/a
82189.41977	1.600248175	1	2	1	9	1	2	3	n/a	n/a	n/a	n/a
82191.02002	1.600111339	1	3	1	9	1	3	3	n/a	n/a	n/a	n/a
82192.62013	1.600261871	1	4	1	9	1	4	3	n/a	n/a	n/a	n/a
82194.22039	1.600225504	1	5	1	9	1	5	3	n/a	n/a	n/a	n/a
82195.82062	1.600265293	1	6	1	9	1	6	3	n/a	n/a	n/a	n/a
82197.42088	1.600252276	1	7	1	9	1	7	3	n/a	n/a	n/a	n/a
82199.02113	1.600238724	1	8	1	9	1	8	3	n/a	n/a	n/a	n/a
82200.62137	1.600240575	1	9	1	9	1	9	3	n/a	n/a	n/a	n/a
82202.22161	1.600246324	1	10	1	9	1	10	3	n/a	n/a	n/a	n/a
82203.82186	1.600234978	1	11	1	9	1	11	3	n/a	n/a	n/a	n/a
82205.42209	1.600205187	1	12	1	9	1	12	3	n/a	n/a	n/a	n/a
82207.0223	1.600346667	1	13	1	1	2	1	1	15	n/a	82207.62247	n/a
82208.62265	1.600284562	1	14	1	1	2	2	2	15	n/a	82209.22276	n/a
82210.22293	1.60011724	1	15	1	1	2	3	2	15	n/a	82210.82302	n/a
82211.82305	1.600252198	1	16	1	1	2	4	1	15	n/a	82212.42314	n/a
82213.4233	1.600247024	1	17	1	1	2	5	1	15	n/a	82214.02338	n/a
82215.02355	1.600360863	1	18	1	1	2	6	1	15	n/a	82215.62365	n/a
82216.62391	1.600134283	1	19	1	1	2	7	1	15	n/a	82217.22391	n/a
82218.22404	1.60024815	1	20	1	1	2	8	1	15	n/a	82218.82414	n/a
82219.82429	1.60022988	1	21	1	1	2	9	1	15	n/a	82220.42438	n/a
82221.42452	1.600267768	1	22	1	1	2	10	2	15	n/a	82222.02459	n/a
82223.02479	1.600216183	1	23	1	1	2	11	2	15	n/a	82223.62487	n/a
82224.625	1.600247548	1	24	1	1	2	12	1	15	n/a	82225.22511	n/a
82226.22525	1.600255822	1	25	1	1	2	13	1	15	n/a	82226.82535	n/a
82227.82551	1.600287336	1	26	1	1	2	14	2	15	n/a	82228.42562	n/a
82229.42579	1.600288612	1	27	1	1	2	15	2	15	n/a	82230.02591	n/a
82231.02608	1.600256671	1	28	1	1	2	16	2	15	n/a	82231.62618	n/a
82232.62634	1.600129909	1	29	1	1	2	17	1	15	n/a	82233.22643	n/a
82234.22647	1.600242275	1	30	1	1	2	18	1	15	n/a	82234.82655	n/a
82235.82671	1.600246475	1	31	1	1	2	19	2	15	n/a	82236.42681	n/a
82237.42696	1.600251847	1	32	1	1	2	20	2	15	n/a	82238.02705	n/a
82239.02721	1.60007313	1	33	1	1	2	21	2	15	n/a	82239.62724	n/a
82240.62728	1.600374532	1	34	1	1	2	22	1	15	n/a	82241.22754	n/a
82242.22766	1.600280838	1	35	1	1	2	23	1	15	n/a	82242.82782	n/a
82243.82794	1.600247399	1	36	1	1	2	24	2	15	n/a	82244.42803	n/a
82245.42819	1.600224106	1	37	1	9	3	1	3	n/a	n/a	n/a	n/a
82247.02841	1.600250922	1	38	1	9	3	2	3	n/a	n/a	n/a	n/a
82248.62866	1.600253773	1	39	1	9	3	3	3	n/a	n/a	n/a	n/a
82250.22892	1.600229454	1	40	1	9	3	4	3	n/a	n/a	n/a	n/a
82251.82914	1.600254146	1	41	1	9	3	5	3	n/a	n/a	n/a	n/a
82253.4294	1.60024185	1	42	1	9	3	6	3	n/a	n/a	n/a	n/a
82255.02964	1.600259345	1	43	1	9	3	7	3	n/a	n/a	n/a	n/a
82256.6299	1.600218859	1	44	1	9	3	8	3	n/a	n/a	n/a	n/a
82258.23012	1.600354439	1	45	1	9	3	9	3	n/a	n/a	n/a	n/a
82259.83047	1.600128762	1	46	1	9	3	10	3	n/a	n/a	n/a	n/a
82261.4306	1.600246499	1	47	1	9	3	11	3	n/a	n/a	n/a	n/a
82263.03085	1.600317225	1	48	1	9	3	12	3	n/a	n/a	n/a	n/a
82264.63117	1.600174398	1	49	1	3	4	1	1	15	n/a	82265.23119	n/a
82266.23134	1.600350366	1	50	1	3	4	2	2	15	n/a	82266.83142	n/a
82267.83169	1.600142882	1	51	1	3	4	3	2	15	n/a	82268.43168	n/a
82269.43183	1.60025822	1	52	1	3	4	4	2	15	n/a	82270.03192	n/a
82271.03209	1.600280536	1	53	1	3	4	5	1	15	n/a	82271.6322	n/a
82272.63237	1.600292436	1	54	1	3	4	6	2	15	n/a	82273.23248	n/a
82274.23266	1.600240425	1	55	1	3	4	7	1	15	n/a	82274.83276	n/a
82275.83291	1.60011244	1	56	1	3	4	8	1	15	n/a	82276.43285	n/a
82277.43302	1.600245949	1	57	1	3	4	9	2	15	n/a	82278.03311	n/a
82279.03326	1.600247701	1	58	1	3	4	10	1	15	n/a	82279.63337	n/a
82280.63351	1.600262044	1	59	1	3	4	11	2	15	n/a	82281.23361	n/a
82282.23377	1.600243399	1	60	1	3	4	12	2	15	n/a	82282.83397	n/a
82283.83402	1.608384239	1	61	1	3	4	13	2	15	n/a	82284.43413	n/a
82285.4424	1.6002452	1	62	1	3	4	14	2	15	n/a	82286.04249	n/a
82287.04265	1.6003165	1	63	1	3	4	15	2	15	n/a	82287.64277	n/a
82288.64296	1.6001692	1	64	1	3	4	16	1	15	n/a	82289.24302	n/a
82290.24313	1.6002271	1	65	1	3	4	17	1	15	n/a	82290.84351	n/a
82291.84336	1.600450012	1	66	1	3	4	18	1	15	n/a	82292.44377	n/a
82293.44381	1.616954112	1	67	1	3	4	19	2	15	n/a	82294.06058	n/a
82295.06076	1.600304211	1	68	1	3	4	20	2	15	n/a	82295.66088	n/a
82296.66107	1.600247394	1	69	1	3	4	21	2	15	n/a	82297.26116	n/a
82298.26131	1.6002426	1	70	1	3	4	22	2	15	n/a	82298.86123	n/a
82299.86156	1.600117865	1	71	1	3	4	23	1	15	n/a	82300.46153	n/a
82301.46167	1.600285662	1	72	1	3	4	24	1	15	n/a	82302.06178	n/a
82303.06196	1.600240851	1	73	1	9	5	1	3	n/a	n/a	n/a	n/a
82304.6622	1.600331897	1	74	1	9	5	2	3	n/a	n/a	n/a	n/a
82306.26253	1.600123961	1	75	1	9	5	3	3	n/a	n/a	n/a	n/a
82307.86266	1.600260745	1	76	1	9	5	4	3	n/a	n/a	n/a	n/a
82309.46292	1.600291935	1	77	1	9	5	5	3	n/a	n/a	n/a	n/a
82311.06321	1.600289836	1	78	1	9	5	6	3	n/a	n/a	n/a	n/a
82312.6635	1.600090648	1	79	1	9	5	7	3	n/a	n/a	n/a	n/a
82314.26359	1.600292458	1	80	1	9	5	8	3	n/a	n/a	n/a	n/a
82315.86388	1.600247251	1	81	1	9	5	9	3	n/a	n/a	n/a	n/a
82317.46413	1.600245547	1	82	1	9	5	10	3	n/a	n/a	n/a	n/a
82319.06438	1.60024915	1	83	1	9	5	11	3	n/a	n/a	n/a	n/a
82320.66462	1.600234476	1	84	1	9	5	12	3	n/a	n/a	n/a	n/a
82322.26486	1.600220457	1	85	1	5	6	1	1	15	n/a	82322.86495	n/a
82323.86508	1.600273466	1	86	1	5	6	2	2	15	n/a	82324.46527	n/a
82325.46535	1.600315928	1	87	1	5	6	3	2	15	n/a	82326.06545	n/a
82327.06567	1.600234452	1	88	1	5	6	4	1	15	n/a	82327.66572	n/a
82328.6659	1.600281089	1	89	1	5	6	5	1	15	n/a	82329.26601	n/a
82330.26618	1.600247424	1	90	1	5	6	6	2	15	n/a	82330.86627	n/a
82331.86643	1.600125985	1	91	1	5	6	7	2	15	n/a	82332.4664	n/a
82333.46656	1.600246499	1	92	1	5	6	8	2	15	n/a	82334.06665	n/a
82335.0668	1.600240251	1	93	1	5	6	9	1	15	n/a	82335.66696	n/a
82336.66704	1.600261546	1	94	1	5	6	10	1	15	n/a	82337.26713	n/a
82338.26731	1.600214807	1	95	1	5	6	11	1	15	n/a	82338.86738	n/a
82339.86752	1.600257046	1	96	1	5	6	12	1	15	n/a	82340.46763	n/a
82341.46778	1.600236677	1	97	1	5	6	13	1	15	n/a	82342.06787	n/a
82343.06802	1.60027324	1	98	1	5	6	14	1	15	n/a	82343.66812	n/a
82344.66829	1.60029456	1	99	1	5	6	15	2	15	n/a	82345.2684	n/a
82346.26858	1.600275864	1	100	1	5	6	16	2	15	n/a	82346.86869	n/a
82347.86886	1.600241151	1	101	1	5	6	17	1	15	n/a	82348.46894	n/a
82349.4691	1.600119364	1	102	1	5	6	18	2	15	n/a	82350.06919	n/a
82351.06922	1.600277464	1	103	1	5	6	19	2	15	n/a	82351.66932	n/a
82352.6695	1.600215659	1	104	1	5	6	20	2	15	n/a	82353.26957	n/a
82354.26971	1.600347217	1	105	1	5	6	21	1	15	n/a	82354.86982	n/a
82355.87006	1.600154204	1	106	1	5	6	22	2	15	n/a	82356.47006	n/a
82357.47021	1.600242399	1	107	1	5	6	23	2	15	n/a	82358.0703	n/a
82359.07046	1.600248348	1	108	1	5	6	24	1	15	n/a	82359.67055	n/a
82360.6707	1.600239401	1	109	1	9	7	1	3	n/a	n/a	n/a	n/a
82362.27094	1.6002486	1	110	1	9	7	2	3	n/a	n/a	n/a	n/a
82363.87119	1.600214834	1	111	1	9	7	3	3	n/a	n/a	n/a	n/a
82365.47141	1.600285236	1	112	1	9	7	4	3	n/a	n/a	n/a	n/a
82367.07169	1.600222955	1	113	1	9	7	5	3	n/a	n/a	n/a	n/a
82368.67192	1.600348493	1	114	1	9	7	6	3	n/a	n/a	n/a	n/a
82370.27226	1.600110841	1	115	1	9	7	7	3	n/a	n/a	n/a	n/a
82371.87237	1.600251673	1	116	1	9	7	8	3	n/a	n/a	n/a	n/a
82373.47263	1.600255021	1	117	1	9	7	9	3	n/a	n/a	n/a	n/a
82375.07288	1.600246775	1	118	1	9	7	10	3	n/a	n/a	n/a	n/a
82376.67313	1.600242375	1	119	1	9	7	11	3	n/a	n/a	n/a	n/a
82378.27337	1.600252772	1	120	1	9	7	12	3	n/a	n/a	n/a	n/a
82379.87362	1.600106218	1	121	1	7	8	1	1	15	n/a	82380.4737	n/a
82381.47373	1.600374183	1	122	1	7	8	2	1	15	n/a	82382.07396	n/a
82383.0741	1.600247473	1	123	1	7	8	3	2	15	n/a	82383.6742	n/a
82384.67435	1.600243825	1	124	1	7	8	4	2	15	n/a	82385.27445	n/a
82386.2746	1.600242676	1	125	1	7	8	5	1	15	n/a	82386.87467	n/a
82387.87484	1.600289435	1	126	1	7	8	6	2	15	n/a	82388.47495	n/a
82389.47513	1.600284637	1	127	1	7	8	7	1	15	n/a	82390.07523	n/a
82391.07541	1.600254796	1	128	1	7	8	8	2	15	n/a	82391.67552	n/a
82392.67567	1.600129161	1	129	1	7	8	9	2	15	n/a	82393.27564	n/a
82394.2758	1.600240176	1	130	1	7	8	10	1	15	n/a	82394.8759	n/a
82395.87604	1.600249249	1	131	1	7	8	11	1	15	n/a	82396.47613	n/a
82397.47629	1.600254296	1	132	1	7	8	12	2	15	n/a	82398.07638	n/a
82399.07654	1.600342593	1	133	1	7	8	13	2	15	n/a	82399.67663	n/a
82400.67688	1.600145407	1	134	1	7	8	14	1	15	n/a	82401.2769	n/a
82402.27703	1.600238801	1	135	1	7	8	15	1	15	n/a	82402.87722	n/a
82403.87727	1.600230005	1	136	1	7	8	16	1	15	n/a	82404.47736	n/a
82405.4775	1.600135559	1	137	1	7	8	17	2	15	n/a	82406.07757	n/a
82407.07763	1.600364661	1	138	1	7	8	18	1	15	n/a	82407.67785	n/a
82408.678	1.60024765	1	139	1	7	8	19	1	15	n/a	82409.2781	n/a
82410.27824	1.60024185	1	140	1	7	8	20	1	15	n/a	82410.87833	n/a
82411.87849	1.600244401	1	141	1	7	8	21	2	15	n/a	82412.47857	n/a
82413.47873	1.60023945	1	142	1	7	8	22	1	15	n/a	82414.07881	n/a
82415.07897	1.600274716	1	143	1	7	8	23	2	15	n/a	82415.67905	n/a
82416.67924	1.600277088	1	144	1	7	8	24	2	15	n/a	82417.27934	n/a
82418.27952	1.600283738	1	145	1	9	9	1	3	n/a	n/a	n/a	n/a
82419.87981	1.600120287	1	146	1	9	9	2	3	n/a	n/a	n/a	n/a
82421.47993	1.600251848	1	147	1	9	9	3	3	n/a	n/a	n/a	n/a
82423.08018	1.600215809	1	148	1	9	9	4	3	n/a	n/a	n/a	n/a
82424.68039	1.600280438	1	149	1	9	9	5	3	n/a	n/a	n/a	n/a
82426.28067	1.60024885	1	150	1	9	9	6	3	n/a	n/a	n/a	n/a
82427.88092	1.600227353	1	151	1	9	9	7	3	n/a	n/a	n/a	n/a
82429.48115	1.600272692	1	152	1	9	9	8	3	n/a	n/a	n/a	n/a
82431.08142	1.600284936	1	153	1	9	9	9	3	n/a	n/a	n/a	n/a
82432.68171	1.600283462	1	154	1	9	9	10	3	n/a	n/a	n/a	n/a
82434.28199	1.600238825	1	155	1	9	9	11	3	n/a	n/a	n/a	n/a
82435.88223	1.600177146	1	156	1	9	9	12	3	n/a	n/a	n/a	n/a
