onset	duration	run_number	trial_number	att_task	bar_direction	bar_period	bar_step	stim_noise_ori	stim_stair_val	response_val	probe_time	reaction_time
612400.6467	1.605293703	2	1	1	9	1	1	3	n/a	n/a	n/a	n/a
612402.252	1.600239909	2	2	1	9	1	2	3	n/a	n/a	n/a	n/a
612403.8522	1.600233446	2	3	1	9	1	3	3	n/a	n/a	n/a	n/a
612405.4524	1.600243223	2	4	1	9	1	4	3	n/a	n/a	n/a	n/a
612407.0527	1.600237671	2	5	1	9	1	5	3	n/a	n/a	n/a	n/a
612408.6529	1.600225511	2	6	1	9	1	6	3	n/a	n/a	n/a	n/a
612410.2531	1.600233551	2	7	1	9	1	7	3	n/a	n/a	n/a	n/a
612411.8534	1.600244695	2	8	1	9	1	8	3	n/a	n/a	n/a	n/a
612413.4536	1.600244233	2	9	1	9	1	9	3	n/a	n/a	n/a	n/a
612415.0539	1.600236786	2	10	1	9	1	10	3	n/a	n/a	n/a	n/a
612416.6541	1.600224682	2	11	1	9	1	11	3	n/a	n/a	n/a	n/a
612418.2543	1.60023979	2	12	1	9	1	12	3	n/a	n/a	n/a	n/a
612419.8546	1.600239041	2	13	1	1	2	1	1	4	n/a	612420.4547	n/a
612421.4548	1.600234004	2	14	1	1	2	2	2	4	1	612422.0549	0.7092164141
612423.055	1.600324483	2	15	1	1	2	3	1	4	1	612423.6551	0.6084600519
612424.6554	1.600160482	2	16	1	1	2	4	1	4	1	612425.2554	0.6133223696
612426.2555	1.600242632	2	17	1	1	2	5	1	3	0	612426.8556	0.3159508063
612427.8558	1.600265231	2	18	1	1	2	6	2	4	0	612428.4559	0.512369733
612429.456	1.600285991	2	19	1	1	2	7	2	5	1	612430.0561	0.8121005553
612431.0563	1.600267003	2	20	1	1	2	8	1	5	1	612431.6564	0.3131228093
612432.6566	1.600114624	2	21	1	1	2	9	1	5	0	612433.2567	0.2073571349
612434.2567	1.600236122	2	22	1	1	2	10	2	6	0	612434.8568	0.4142086579
612435.8569	1.600274828	2	23	1	1	2	11	2	7	1	612436.457	0.5152984102
612437.4572	1.600292246	2	24	1	1	2	12	2	7	1	612438.0573	0.5050834643
612439.0575	1.600262695	2	25	1	1	2	13	2	7	1	612439.6576	0.6070524509
612440.6578	1.600113635	2	26	1	1	2	14	1	6	1	612441.2579	0.5138705021
612442.2579	1.6002348	2	27	1	1	2	15	2	6	1	612442.858	0.5111234769
612443.8581	1.600248947	2	28	1	1	2	16	1	6	n/a	612444.4582	n/a
612445.4584	1.600224787	2	29	1	1	2	17	2	6	1	612446.0584	0.6128797984
612447.0586	1.600332073	2	30	1	1	2	18	1	5	1	612447.6587	0.6059078276
612448.6589	1.600273612	2	31	1	1	2	19	2	5	1	612449.259	0.5097654589
612450.2592	1.60023064	2	32	1	1	2	20	2	5	0	612450.8593	0.9085616805
612451.8594	1.600228467	2	33	1	1	2	21	1	6	1	612452.4595	0.9106417488
612453.4596	1.600246666	2	34	1	1	2	22	2	6	1	612454.0597	0.51167563
612455.0599	1.600242881	2	35	1	1	2	23	2	6	1	612455.66	0.7127312577
612456.6601	1.600108263	2	36	1	1	2	24	2	5	n/a	612457.2602	n/a
612458.2602	1.600241468	2	37	1	9	3	1	3	n/a	n/a	n/a	n/a
612459.8605	1.600244378	2	38	1	9	3	2	3	n/a	n/a	n/a	n/a
612461.4607	1.600244773	2	39	1	9	3	3	3	n/a	n/a	n/a	n/a
612463.061	1.600234395	2	40	1	9	3	4	3	n/a	n/a	n/a	n/a
612464.6612	1.600355013	2	41	1	9	3	5	3	n/a	n/a	n/a	n/a
612466.2616	1.600106872	2	42	1	9	3	6	3	n/a	n/a	n/a	n/a
612467.8617	1.600254671	2	43	1	9	3	7	3	n/a	n/a	n/a	n/a
612469.4619	1.600276846	2	44	1	9	3	8	3	n/a	n/a	n/a	n/a
612471.0622	1.600286323	2	45	1	9	3	9	3	n/a	n/a	n/a	n/a
612472.6625	1.600256765	2	46	1	9	3	10	3	n/a	n/a	n/a	n/a
612474.2627	1.600227167	2	47	1	9	3	11	3	n/a	n/a	n/a	n/a
612475.863	1.600104053	2	48	1	9	3	12	3	n/a	n/a	n/a	n/a
612477.4631	1.600242987	2	49	1	3	4	1	2	5	0	612478.0632	0.1103576869
612479.0633	1.600244533	2	50	1	3	4	2	1	6	1	612479.6634	0.3105196718
612480.6636	1.600254792	2	51	1	3	4	3	1	6	1	612481.2637	0.6040873441
612482.2638	1.600233191	2	52	1	3	4	4	2	6	1	612482.8639	0.3139140389
612483.8641	1.600234858	2	53	1	3	4	5	1	5	0	612484.4641	0.3152325045
612485.4643	1.600235273	2	54	1	3	4	6	1	6	1	612486.0644	0.4133549946
612487.0645	1.600233432	2	55	1	3	4	7	1	6	1	612487.6646	0.5129238124
612488.6648	1.600239649	2	56	1	3	4	8	1	6	1	612489.2649	0.5064083351
612490.265	1.600315396	2	57	1	3	4	9	1	5	1	612490.8651	0.3128373469
612491.8653	1.600193995	2	58	1	3	4	10	2	5	1	612492.4653	0.5129021836
612493.4655	1.600285214	2	59	1	3	4	11	2	5	1	612494.0656	0.510763092
612495.0658	1.600271491	2	60	1	3	4	12	1	4	1	612495.6659	0.3133804144
612496.6661	1.600111682	2	61	1	3	4	13	1	4	0	612497.2662	0.3110598805
612498.2662	1.600231914	2	62	1	3	4	14	2	5	1	612498.8663	0.6131296501
612499.8664	1.600241681	2	63	1	3	4	15	1	5	1	612500.4666	0.3134433225
612501.4666	1.600231358	2	64	1	3	4	16	1	5	1	612502.0667	0.4064277858
612503.0669	1.600254806	2	65	1	3	4	17	2	4	1	612503.667	0.2117633403
612504.6671	1.600232404	2	66	1	3	4	18	1	4	1	612505.2672	0.4135290757
612506.2674	1.600234801	2	67	1	3	4	19	2	4	0	612506.8675	0.4159710836
612507.8676	1.60024254	2	68	1	3	4	20	2	5	1	612508.4677	0.905263534
612509.4678	1.600229614	2	69	1	3	4	21	1	5	n/a	612510.0679	n/a
612511.0681	1.60024379	2	70	1	3	4	22	1	5	0	612511.6682	0.913726448
612512.6683	1.600354153	2	71	1	3	4	23	1	6	n/a	612513.2684	n/a
612514.2687	1.600173047	2	72	1	3	4	24	2	6	0	612514.8687	0.8113816157
612515.8688	1.600287864	2	73	1	9	5	1	3	n/a	n/a	n/a	n/a
612517.4691	1.600248677	2	74	1	9	5	2	3	n/a	n/a	n/a	n/a
612519.0694	1.600110204	2	75	1	9	5	3	3	n/a	n/a	n/a	n/a
612520.6695	1.600230277	2	76	1	9	5	4	3	n/a	n/a	n/a	n/a
612522.2697	1.600248015	2	77	1	9	5	5	3	n/a	n/a	n/a	n/a
612523.87	1.600251473	2	78	1	9	5	6	3	n/a	n/a	n/a	n/a
612525.4702	1.600233914	2	79	1	9	5	7	3	n/a	n/a	n/a	n/a
612527.0705	1.600230922	2	80	1	9	5	8	3	n/a	n/a	n/a	n/a
612528.6707	1.600239557	2	81	1	9	5	9	3	n/a	n/a	n/a	n/a
612530.2709	1.600222925	2	82	1	9	5	10	3	n/a	n/a	n/a	n/a
612531.8712	1.600258765	2	83	1	9	5	11	3	n/a	n/a	n/a	n/a
612533.4714	1.600234168	2	84	1	9	5	12	3	n/a	n/a	n/a	n/a
612535.0716	1.600229618	2	85	1	5	6	1	2	7	1	612535.6717	0.2142833191
612536.6719	1.600234177	2	86	1	5	6	2	1	7	1	612537.272	0.4122612935
612538.2721	1.600239725	2	87	1	5	6	3	1	7	1	612538.8722	0.5122997025
612539.8723	1.60025958	2	88	1	5	6	4	2	6	1	612540.4724	0.4124379173
612541.4726	1.600219737	2	89	1	5	6	5	1	6	1	612542.0727	0.5128356796
612543.0728	1.600332024	2	90	1	5	6	6	2	6	1	612543.6729	0.5117822813
612544.6732	1.600232468	2	91	1	5	6	7	1	5	1	612545.2732	0.4110764125
612546.2734	1.600250311	2	92	1	5	6	8	2	5	1	612546.8735	0.4105500666
612547.8736	1.600110153	2	93	1	5	6	9	1	5	1	612548.4736	0.3083122552
612549.4738	1.600239573	2	94	1	5	6	10	2	4	1	612550.0738	0.4116089263
612551.074	1.60024302	2	95	1	5	6	11	2	4	0	612551.6741	0.7091728834
612552.6742	1.600219133	2	96	1	5	6	12	1	5	1	612553.2744	0.4089370116
612554.2745	1.600255466	2	97	1	5	6	13	2	5	1	612554.8745	0.8074272414
612555.8747	1.600267092	2	98	1	5	6	14	2	5	1	612556.4748	0.8121799874
612557.475	1.600293823	2	99	1	5	6	15	1	4	1	612558.0751	0.6117689048
612559.0753	1.600268926	2	100	1	5	6	16	2	4	1	612559.6754	0.5091552271
612560.6755	1.600199428	2	101	1	5	6	17	2	4	n/a	612561.2756	n/a
612562.2757	1.600271972	2	102	1	5	6	18	1	4	1	612562.8759	0.6110847261
612563.876	1.600236709	2	103	1	5	6	19	1	3	1	612564.4761	0.5107886982
612565.4762	1.600241805	2	104	1	5	6	20	2	3	1	612566.0763	0.2131569033
612567.0765	1.600103358	2	105	1	5	6	21	1	3	0	612567.6764	0.7096516552
612568.6766	1.600223176	2	106	1	5	6	22	1	4	1	612569.2768	0.5101471855
612570.2768	1.600353104	2	107	1	5	6	23	2	4	0	612570.8769	0.3127593035
612571.8772	1.600151858	2	108	1	5	6	24	2	5	1	612572.4772	0.5121534558
612573.4773	1.600239637	2	109	1	9	7	1	3	n/a	n/a	n/a	n/a
612575.0776	1.600248085	2	110	1	9	7	2	3	n/a	n/a	n/a	n/a
612576.6778	1.600222533	2	111	1	9	7	3	3	n/a	n/a	n/a	n/a
612578.278	1.600240391	2	112	1	9	7	4	3	n/a	n/a	n/a	n/a
612579.8783	1.600241863	2	113	1	9	7	5	3	n/a	n/a	n/a	n/a
612581.4785	1.600229145	2	114	1	9	7	6	3	n/a	n/a	n/a	n/a
612583.0787	1.6002344	2	115	1	9	7	7	3	n/a	n/a	n/a	n/a
612584.679	1.600341266	2	116	1	9	7	8	3	n/a	n/a	n/a	n/a
612586.2793	1.600135525	2	117	1	9	7	9	3	n/a	n/a	n/a	n/a
612587.8795	1.600237718	2	118	1	9	7	10	3	n/a	n/a	n/a	n/a
612589.4797	1.600230905	2	119	1	9	7	11	3	n/a	n/a	n/a	n/a
612591.0799	1.600239558	2	120	1	9	7	12	3	n/a	n/a	n/a	n/a
612592.6802	1.600233129	2	121	1	7	8	1	1	5	0	612593.2802	0.3093503814
612594.2804	1.600238322	2	122	1	7	8	2	2	6	1	612594.8806	0.5115328848
612595.8806	1.600232337	2	123	1	7	8	3	2	6	1	612596.4807	0.9049301607
612597.4809	1.600240363	2	124	1	7	8	4	1	6	1	612598.081	0.9126855331
612599.0811	1.600284014	2	125	1	7	8	5	2	5	1	612599.6812	0.6121503041
612600.6814	1.600278823	2	126	1	7	8	6	1	5	1	612601.2815	0.3127911671
612602.2817	1.600241372	2	127	1	7	8	7	2	5	1	612602.8818	0.3112787441
612603.8819	1.600134508	2	128	1	7	8	8	1	4	1	612604.482	0.3128757061
612605.482	1.600224411	2	129	1	7	8	9	2	4	1	612606.0821	0.413213543
612607.0823	1.600248427	2	130	1	7	8	10	2	4	0	612607.6824	0.4133981441
612608.6825	1.60024299	2	131	1	7	8	11	2	5	1	612609.2826	0.7117657975
612610.2828	1.600244196	2	132	1	7	8	12	2	5	n/a	612610.8829	n/a
612611.883	1.600213975	2	133	1	7	8	13	2	5	0	612612.4831	0.4155599063
612613.4832	1.600247524	2	134	1	7	8	14	2	6	1	612614.0833	0.8104951973
612615.0835	1.600239595	2	135	1	7	8	15	1	6	1	612615.6836	0.5132244152
612616.6837	1.600234282	2	136	1	7	8	16	2	6	1	612617.2838	0.6130604823
612618.2839	1.600235532	2	137	1	7	8	17	1	5	1	612618.884	0.4110435669
612619.8842	1.600237954	2	138	1	7	8	18	1	5	0	612620.4843	0.512813438
612621.4844	1.600255713	2	139	1	7	8	19	1	6	1	612622.0845	0.4119050481
612623.0847	1.600235366	2	140	1	7	8	20	1	6	0	612623.6847	0.5129904834
612624.6849	1.600228654	2	141	1	7	8	21	1	7	1	612625.285	0.4134557202
612626.2851	1.600226736	2	142	1	7	8	22	1	7	0	612626.8852	0.4060915747
612627.8854	1.600295679	2	143	1	7	8	23	2	8	1	612628.4855	0.7120884785
612629.4857	1.600177881	2	144	1	7	8	24	2	8	1	612630.0857	0.6125878708
612631.0858	1.600234654	2	145	1	9	9	1	3	n/a	n/a	n/a	n/a
612632.6861	1.60023931	2	146	1	9	9	2	3	n/a	n/a	n/a	n/a
612634.2863	1.600238336	2	147	1	9	9	3	3	n/a	n/a	n/a	n/a
612635.8865	1.600237963	2	148	1	9	9	4	3	n/a	n/a	n/a	n/a
612637.4868	1.600206288	2	149	1	9	9	5	3	n/a	n/a	n/a	n/a
612639.087	1.600269808	2	150	1	9	9	6	3	n/a	n/a	n/a	n/a
612640.6873	1.600247974	2	151	1	9	9	7	3	n/a	n/a	n/a	n/a
612642.2875	1.600263127	2	152	1	9	9	8	3	n/a	n/a	n/a	n/a
612643.8878	1.600297874	2	153	1	9	9	9	3	n/a	n/a	n/a	n/a
612645.4881	1.600233951	2	154	1	9	9	10	3	n/a	n/a	n/a	n/a
612647.0883	1.600117404	2	155	1	9	9	11	3	n/a	n/a	n/a	n/a
612648.6884	1.600272422	2	156	1	9	9	12	3	n/a	n/a	n/a	n/a
