onset	duration	run_number	trial_number	att_task	bar_direction	bar_period	bar_step	stim_noise_ori	stim_stair_val	response_val	probe_time	reaction_time
592192.2357	1.602804399	2	1	1	9	1	1	3	n/a	n/a	n/a	n/a
592193.8385	1.600264272	2	2	1	9	1	2	3	n/a	n/a	n/a	n/a
592195.4387	1.600295059	2	3	1	9	1	3	3	n/a	n/a	n/a	n/a
592197.039	1.600228261	2	4	1	9	1	4	3	n/a	n/a	n/a	n/a
592198.6393	1.600183342	2	5	1	9	1	5	3	n/a	n/a	n/a	n/a
592200.2394	1.600232317	2	6	1	9	1	6	3	n/a	n/a	n/a	n/a
592201.8397	1.600261285	2	7	1	9	1	7	3	n/a	n/a	n/a	n/a
592203.4399	1.600264171	2	8	1	9	1	8	3	n/a	n/a	n/a	n/a
592205.0402	1.600228988	2	9	1	9	1	9	3	n/a	n/a	n/a	n/a
592206.6404	1.600241878	2	10	1	9	1	10	3	n/a	n/a	n/a	n/a
592208.2407	1.600260983	2	11	1	9	1	11	3	n/a	n/a	n/a	n/a
592209.8409	1.600299537	2	12	1	9	1	12	3	n/a	n/a	n/a	n/a
592211.4412	1.600248694	2	13	1	1	2	1	2	9	0	592212.0413	0.1065774683
592213.0415	1.600154614	2	14	1	1	2	2	1	10	1	592213.6415	0.4064448864
592214.6416	1.600243492	2	15	1	1	2	3	2	10	1	592215.2417	0.4072315741
592216.2419	1.600244953	2	16	1	1	2	4	2	10	1	592216.842	0.4106436138
592217.8421	1.600244291	2	17	1	1	2	5	2	9	0	592218.4422	0.5057415392
592219.4424	1.600263678	2	18	1	1	2	6	1	10	1	592220.0425	0.5074036237
592221.0426	1.600254063	2	19	1	1	2	7	2	10	1	592221.6427	0.5052919802
592222.6429	1.600231183	2	20	1	1	2	8	2	10	1	592223.243	0.508047343
592224.2431	1.600239508	2	21	1	1	2	9	1	9	1	592224.8432	0.5077451826
592225.8434	1.600246683	2	22	1	1	2	10	2	9	1	592226.4435	0.4057578166
592227.4436	1.6002607	2	23	1	1	2	11	1	9	1	592228.0437	0.505030343
592229.0439	1.600243806	2	24	1	1	2	12	1	8	1	592229.644	0.5078004864
592230.6441	1.600276911	2	25	1	1	2	13	1	8	1	592231.2442	0.6062227406
592232.2444	1.600195241	2	26	1	1	2	14	2	8	1	592232.8444	0.7055417367
592233.8446	1.600256085	2	27	1	1	2	15	1	7	1	592234.4447	0.6066704949
592235.4448	1.600260079	2	28	1	1	2	16	1	7	1	592236.0449	0.6070533878
592237.0451	1.600283383	2	29	1	1	2	17	1	7	1	592237.6452	0.5038520278
592238.6454	1.600265419	2	30	1	1	2	18	2	6	1	592239.2455	0.4051458887
592240.2457	1.600155621	2	31	1	1	2	19	1	6	1	592240.8457	0.304745842
592241.8458	1.600266065	2	32	1	1	2	20	1	6	0	592242.4459	0.3075542313
592243.4461	1.600285604	2	33	1	1	2	21	1	7	1	592244.0462	0.1106835845
592245.0464	1.600260404	2	34	1	1	2	22	2	7	1	592245.6465	0.1096228826
592246.6466	1.600172829	2	35	1	1	2	23	1	7	1	592247.2467	0.008187498664
592248.2468	1.600229752	2	36	1	1	2	24	1	6	0	592248.8469	0.009451915044
592249.847	1.600276922	2	37	1	9	3	1	3	n/a	n/a	n/a	n/a
592251.4473	1.600235453	2	38	1	9	3	2	3	n/a	n/a	n/a	n/a
592253.0475	1.600245898	2	39	1	9	3	3	3	n/a	n/a	n/a	n/a
592254.6478	1.60023345	2	40	1	9	3	4	3	n/a	n/a	n/a	n/a
592256.248	1.600332602	2	41	1	9	3	5	3	n/a	n/a	n/a	n/a
592257.8483	1.600206089	2	42	1	9	3	6	3	n/a	n/a	n/a	n/a
592259.4486	1.600237768	2	43	1	9	3	7	3	n/a	n/a	n/a	n/a
592261.0488	1.60028801	2	44	1	9	3	8	3	n/a	n/a	n/a	n/a
592262.6491	1.600147753	2	45	1	9	3	9	3	n/a	n/a	n/a	n/a
592264.2492	1.600357575	2	46	1	9	3	10	3	n/a	n/a	n/a	n/a
592265.8496	1.600150882	2	47	1	9	3	11	3	n/a	n/a	n/a	n/a
592267.4497	1.600243311	2	48	1	9	3	12	3	n/a	n/a	n/a	n/a
592269.05	1.60023724	2	49	1	3	4	1	1	7	1	592269.6501	0.4059881672
592270.6502	1.600253376	2	50	1	3	4	2	1	7	0	592271.2503	0.008288156241
592272.2505	1.600315494	2	51	1	3	4	3	2	8	n/a	592272.8506	n/a
592273.8508	1.600179185	2	52	1	3	4	4	1	8	n/a	592274.4508	n/a
592275.451	1.600244799	2	53	1	3	4	5	2	8	1	592276.0511	0.7074101971
592277.0512	1.600273356	2	54	1	3	4	6	2	8	0	592277.6513	0.6046950358
592278.6515	1.600276472	2	55	1	3	4	7	2	9	1	592279.2516	0.4076593773
592280.2518	1.600223304	2	56	1	3	4	8	1	9	1	592280.8518	0.4065653081
592281.852	1.600272037	2	57	1	3	4	9	2	9	1	592282.4521	0.4076945878
592283.4523	1.60016562	2	58	1	3	4	10	1	8	1	592284.0523	0.5073146656
592285.0524	1.600240959	2	59	1	3	4	11	2	8	1	592285.6525	0.5071973222
592286.6527	1.600265681	2	60	1	3	4	12	1	8	1	592287.2528	0.6042048826
592288.2529	1.600326903	2	61	1	3	4	13	1	7	1	592288.8531	0.5058887053
592289.8533	1.600151934	2	62	1	3	4	14	1	7	1	592290.4533	0.6063076694
592291.4534	1.6002516	2	63	1	3	4	15	1	7	1	592292.0535	0.5078056896
592293.0537	1.600240261	2	64	1	3	4	16	2	6	1	592293.6538	0.4104543467
592294.6539	1.60025635	2	65	1	3	4	17	2	6	0	592295.254	0.3099914043
592296.2542	1.600325151	2	66	1	3	4	18	2	7	1	592296.8543	0.3098760487
592297.8545	1.600215899	2	67	1	3	4	19	1	7	1	592298.4545	0.2049198345
592299.4547	1.600233598	2	68	1	3	4	20	1	7	0	592300.0547	0.1108634674
592301.0549	1.600281148	2	69	1	3	4	21	1	8	1	592301.655	0.006871841499
592302.6552	1.6001441	2	70	1	3	4	22	2	8	n/a	592303.2553	n/a
592304.2554	1.60030245	2	71	1	3	4	23	2	8	n/a	592304.8555	n/a
592305.8557	1.600191722	2	72	1	3	4	24	2	8	n/a	592306.4557	n/a
592307.4558	1.600248785	2	73	1	9	5	1	3	n/a	n/a	n/a	n/a
592309.0561	1.600259391	2	74	1	9	5	2	3	n/a	n/a	n/a	n/a
592310.6564	1.600236313	2	75	1	9	5	3	3	n/a	n/a	n/a	n/a
592312.2566	1.600278794	2	76	1	9	5	4	3	n/a	n/a	n/a	n/a
592313.8569	1.600213604	2	77	1	9	5	5	3	n/a	n/a	n/a	n/a
592315.4571	1.600240513	2	78	1	9	5	6	3	n/a	n/a	n/a	n/a
592317.0573	1.600252154	2	79	1	9	5	7	3	n/a	n/a	n/a	n/a
592318.6576	1.60025577	2	80	1	9	5	8	3	n/a	n/a	n/a	n/a
592320.2578	1.600266772	2	81	1	9	5	9	3	n/a	n/a	n/a	n/a
592321.8581	1.600265126	2	82	1	9	5	10	3	n/a	n/a	n/a	n/a
592323.4584	1.600274672	2	83	1	9	5	11	3	n/a	n/a	n/a	n/a
592325.0586	1.600240167	2	84	1	9	5	12	3	n/a	n/a	n/a	n/a
592326.6589	1.600252743	2	85	1	5	6	1	1	8	1	592327.2589	0.2101677392
592328.2591	1.600199761	2	86	1	5	6	2	2	8	1	592328.8592	0.2049380396
592329.8593	1.600178204	2	87	1	5	6	3	1	7	1	592330.4594	0.3079057382
592331.4595	1.600279627	2	88	1	5	6	4	2	7	1	592332.0596	0.309801826
592333.0598	1.600248902	2	89	1	5	6	5	2	7	1	592333.6599	0.3084130934
592334.66	1.600224646	2	90	1	5	6	6	1	6	1	592335.2602	0.4073355033
592336.2603	1.600283364	2	91	1	5	6	7	2	6	1	592336.8604	0.4050797056
592337.8605	1.600215523	2	92	1	5	6	8	1	6	1	592338.4606	0.408076833
592339.4608	1.600246022	2	93	1	5	6	9	1	5	0	592340.0608	0.4055486561
592341.061	1.6002492	2	94	1	5	6	10	2	6	0	592341.6611	0.3105047127
592342.6613	1.600241333	2	95	1	5	6	11	1	7	0	592343.2613	0.4065657104
592344.2615	1.600261573	2	96	1	5	6	12	1	8	1	592344.8616	0.5079271242
592345.8618	1.600237784	2	97	1	5	6	13	2	8	1	592346.4618	0.5062732996
592347.462	1.600241811	2	98	1	5	6	14	1	8	1	592348.0621	0.606863226
592349.0622	1.600257869	2	99	1	5	6	15	1	7	0	592349.6623	0.711194625
592350.6625	1.600273904	2	100	1	5	6	16	2	8	0	592351.2626	0.5062493642
592352.2628	1.600137428	2	101	1	5	6	17	1	9	0	592352.8628	0.3065501312
592353.8629	1.600304023	2	102	1	5	6	18	2	10	0	592354.4631	0.2050390609
592355.4632	1.60023663	2	103	1	5	6	19	1	11	1	592356.0633	0.408715326
592357.0634	1.600253574	2	104	1	5	6	20	1	11	1	592357.6636	0.5072114151
592358.6637	1.600243291	2	105	1	5	6	21	2	11	1	592359.2638	0.5077463321
592360.2639	1.60028051	2	106	1	5	6	22	2	10	1	592360.8641	0.5079635071
592361.8642	1.600205965	2	107	1	5	6	23	2	10	1	592362.4643	0.5067980585
592363.4644	1.600286384	2	108	1	5	6	24	1	10	1	592364.0645	0.4125147755
592365.0647	1.600265931	2	109	1	9	7	1	3	n/a	n/a	n/a	n/a
592366.665	1.60026573	2	110	1	9	7	2	3	n/a	n/a	n/a	n/a
592368.2652	1.600209348	2	111	1	9	7	3	3	n/a	n/a	n/a	n/a
592369.8655	1.6002814	2	112	1	9	7	4	3	n/a	n/a	n/a	n/a
592371.4657	1.600146261	2	113	1	9	7	5	3	n/a	n/a	n/a	n/a
592373.0659	1.600243091	2	114	1	9	7	6	3	n/a	n/a	n/a	n/a
592374.6661	1.600268412	2	115	1	9	7	7	3	n/a	n/a	n/a	n/a
592376.2664	1.600277036	2	116	1	9	7	8	3	n/a	n/a	n/a	n/a
592377.8667	1.600216791	2	117	1	9	7	9	3	n/a	n/a	n/a	n/a
592379.4669	1.600247309	2	118	1	9	7	10	3	n/a	n/a	n/a	n/a
592381.0671	1.600248191	2	119	1	9	7	11	3	n/a	n/a	n/a	n/a
592382.6674	1.6002293	2	120	1	9	7	12	3	n/a	n/a	n/a	n/a
592384.2676	1.600269121	2	121	1	7	8	1	1	9	1	592384.8677	0.4048379567
592385.8679	1.600234579	2	122	1	7	8	2	1	9	1	592386.468	0.6048162415
592387.4681	1.600247457	2	123	1	7	8	3	1	9	1	592388.0682	0.6071210105
592389.0684	1.600246078	2	124	1	7	8	4	2	8	1	592389.6685	0.4046433863
592390.6686	1.600223465	2	125	1	7	8	5	1	8	1	592391.2687	0.4078830972
592392.2688	1.600282255	2	126	1	7	8	6	1	8	1	592392.869	0.306685742
592393.8691	1.600227201	2	127	1	7	8	7	1	7	0	592394.4692	0.3072875972
592395.4693	1.600249002	2	128	1	7	8	8	2	8	0	592396.0694	0.114122767
592397.0696	1.60024753	2	129	1	7	8	9	1	9	1	592397.6697	0.4054290322
592398.6698	1.600226043	2	130	1	7	8	10	2	9	1	592399.2699	0.4069352538
592400.2701	1.60025348	2	131	1	7	8	11	2	9	1	592400.8702	0.4079930501
592401.8703	1.600246482	2	132	1	7	8	12	1	8	1	592402.4704	0.408252691
592403.4706	1.600248875	2	133	1	7	8	13	1	8	1	592404.0706	0.6068763863
592405.0708	1.600242899	2	134	1	7	8	14	1	8	1	592405.6709	0.6050609514
592406.6711	1.60027148	2	135	1	7	8	15	1	7	1	592407.2712	0.6062121009
592408.2713	1.600270185	2	136	1	7	8	16	1	7	1	592408.8714	0.5073662749
592409.8716	1.600257147	2	137	1	7	8	17	1	7	0	592410.4717	0.4066237118
592411.4719	1.60016867	2	138	1	7	8	18	1	8	1	592412.072	0.3099855817
592413.072	1.600241167	2	139	1	7	8	19	1	8	0	592413.6721	0.304303167
592414.6723	1.600249211	2	140	1	7	8	20	2	9	0	592415.2724	0.1067654223
592416.2725	1.600224924	2	141	1	7	8	21	2	10	1	592416.8726	0.3064304303
592417.8727	1.6002648	2	142	1	7	8	22	1	10	1	592418.4729	0.3065909538
592419.473	1.6002511	2	143	1	7	8	23	2	10	1	592420.0731	0.2047287887
592421.0733	1.600276969	2	144	1	7	8	24	2	9	0	592421.6734	0.107303984
592422.6735	1.600262983	2	145	1	9	9	1	3	n/a	n/a	n/a	n/a
592424.2738	1.600262873	2	146	1	9	9	2	3	n/a	n/a	n/a	n/a
592425.8741	1.600159057	2	147	1	9	9	3	3	n/a	n/a	n/a	n/a
592427.4742	1.600246523	2	148	1	9	9	4	3	n/a	n/a	n/a	n/a
592429.0745	1.600240953	2	149	1	9	9	5	3	n/a	n/a	n/a	n/a
592430.6747	1.600256243	2	150	1	9	9	6	3	n/a	n/a	n/a	n/a
592432.275	1.600264568	2	151	1	9	9	7	3	n/a	n/a	n/a	n/a
592433.8752	1.600243643	2	152	1	9	9	8	3	n/a	n/a	n/a	n/a
592435.4755	1.60029941	2	153	1	9	9	9	3	n/a	n/a	n/a	n/a
592437.0758	1.600190871	2	154	1	9	9	10	3	n/a	n/a	n/a	n/a
592438.676	1.600241108	2	155	1	9	9	11	3	n/a	n/a	n/a	n/a
592440.2762	1.600246711	2	156	1	9	9	12	3	n/a	n/a	n/a	n/a
