onset	duration	run_number	trial_number	att_task	bar_direction	bar_period	bar_step	stim_noise_ori	stim_stair_val	response_val	probe_time	reaction_time
591891.8646	1.602849712	1	1	1	9	1	1	3	n/a	n/a	n/a	n/a
591893.4674	1.600228606	1	2	1	9	1	2	3	n/a	n/a	n/a	n/a
591895.0677	1.600371872	1	3	1	9	1	3	3	n/a	n/a	n/a	n/a
591896.668	1.600247653	1	4	1	9	1	4	3	n/a	n/a	n/a	n/a
591898.2683	1.60010178	1	5	1	9	1	5	3	n/a	n/a	n/a	n/a
591899.8684	1.600271352	1	6	1	9	1	6	3	n/a	n/a	n/a	n/a
591901.4686	1.600227356	1	7	1	9	1	7	3	n/a	n/a	n/a	n/a
591903.0689	1.600290166	1	8	1	9	1	8	3	n/a	n/a	n/a	n/a
591904.6692	1.600272907	1	9	1	9	1	9	3	n/a	n/a	n/a	n/a
591906.2694	1.60030415	1	10	1	9	1	10	3	n/a	n/a	n/a	n/a
591907.8697	1.600242807	1	11	1	9	1	11	3	n/a	n/a	n/a	n/a
591909.47	1.600106432	1	12	1	9	1	12	3	n/a	n/a	n/a	n/a
591911.0701	1.600256571	1	13	1	1	2	1	2	9	0	591911.6702	0.5069388261
591912.6703	1.600253227	1	14	1	1	2	2	1	10	1	591913.2704	0.5053332224
591914.2706	1.600261648	1	15	1	1	2	3	2	10	1	591914.8707	0.4075097446
591915.8709	1.600342696	1	16	1	1	2	4	1	10	1	591916.471	0.5071983527
591917.4712	1.600130558	1	17	1	1	2	5	2	9	1	591918.0712	0.6080650849
591919.0713	1.600263013	1	18	1	1	2	6	2	9	1	591919.6714	0.5071344278
591920.6716	1.600242023	1	19	1	1	2	7	1	9	1	591921.2717	0.5037937913
591922.2718	1.600249514	1	20	1	1	2	8	1	8	0	591922.8719	0.4071820108
591923.8721	1.600246396	1	21	1	1	2	9	2	9	1	591924.4722	0.4078034033
591925.4723	1.600265886	1	22	1	1	2	10	2	9	1	591926.0725	0.5077815853
591927.0726	1.600304584	1	23	1	1	2	11	1	9	1	591927.6727	0.5044974756
591928.6729	1.600263928	1	24	1	1	2	12	2	8	1	591929.273	0.5030709321
591930.2732	1.600109203	1	25	1	1	2	13	1	8	0	591930.8733	0.5091808349
591931.8733	1.60028131	1	26	1	1	2	14	2	9	1	591932.4734	0.4093384822
591933.4736	1.600228247	1	27	1	1	2	15	2	9	1	591934.0736	0.6036340654
591935.0738	1.600258647	1	28	1	1	2	16	1	9	1	591935.6739	0.6056075316
591936.674	1.600240615	1	29	1	1	2	17	1	8	1	591937.2741	0.5144470512
591938.2743	1.600235086	1	30	1	1	2	18	2	8	1	591938.8744	0.6059724577
591939.8745	1.600264191	1	31	1	1	2	19	2	8	0	591940.4746	0.4062058371
591941.4748	1.60024059	1	32	1	1	2	20	1	9	1	591942.0749	0.4068414707
591943.075	1.600236456	1	33	1	1	2	21	1	9	1	591943.6751	0.4069046811
591944.6753	1.6002351	1	34	1	1	2	22	2	9	1	591945.2754	0.008329707081
591946.2755	1.6002462	1	35	1	1	2	23	2	8	n/a	591946.8756	n/a
591947.8757	1.60029466	1	36	1	1	2	24	2	8	0	591948.4759	0.9061356632
591949.476	1.60030049	1	37	1	9	3	1	3	n/a	n/a	n/a	n/a
591951.0763	1.600253902	1	38	1	9	3	2	3	n/a	n/a	n/a	n/a
591952.6766	1.600129539	1	39	1	9	3	3	3	n/a	n/a	n/a	n/a
591954.2767	1.600241643	1	40	1	9	3	4	3	n/a	n/a	n/a	n/a
591955.877	1.600249875	1	41	1	9	3	5	3	n/a	n/a	n/a	n/a
591957.4772	1.600255366	1	42	1	9	3	6	3	n/a	n/a	n/a	n/a
591959.0775	1.600263815	1	43	1	9	3	7	3	n/a	n/a	n/a	n/a
591960.6777	1.600206121	1	44	1	9	3	8	3	n/a	n/a	n/a	n/a
591962.2779	1.600261801	1	45	1	9	3	9	3	n/a	n/a	n/a	n/a
591963.8782	1.600245466	1	46	1	9	3	10	3	n/a	n/a	n/a	n/a
591965.4784	1.600244787	1	47	1	9	3	11	3	n/a	n/a	n/a	n/a
591967.0787	1.600242213	1	48	1	9	3	12	3	n/a	n/a	n/a	n/a
591968.6789	1.600253756	1	49	1	3	4	1	2	9	0	591969.279	0.311891867
591970.2792	1.600244577	1	50	1	3	4	2	2	10	1	591970.8793	0.4070575343
591971.8794	1.600230253	1	51	1	3	4	3	2	10	1	591972.4795	0.7070985408
591973.4797	1.600256948	1	52	1	3	4	4	2	10	1	591974.0798	0.8049535854
591975.0799	1.600262788	1	53	1	3	4	5	1	9	1	591975.68	0.5051977631
591976.6802	1.600292873	1	54	1	3	4	6	2	9	1	591977.2803	0.6063268011
591978.2805	1.60029415	1	55	1	3	4	7	2	9	1	591978.8806	0.6173468707
591979.8808	1.600107067	1	56	1	3	4	8	1	8	1	591980.4809	0.4061909619
591981.4809	1.600266487	1	57	1	3	4	9	1	8	0	591982.081	0.3096054419
591983.0811	1.600246721	1	58	1	3	4	10	2	9	1	591983.6812	0.2069522316
591984.6814	1.60023136	1	59	1	3	4	11	1	9	1	591985.2815	0.3096965016
591986.2816	1.600250579	1	60	1	3	4	12	1	9	1	591986.8817	0.5050618278
591987.8819	1.600252461	1	61	1	3	4	13	2	8	1	591988.482	0.2058235212
591989.4821	1.600267054	1	62	1	3	4	14	2	8	0	591990.0822	0.009060967015
591991.0824	1.600274124	1	63	1	3	4	15	2	9	1	591991.6825	-0.08839301462
591992.6827	1.60028543	1	64	1	3	4	16	2	9	1	591993.2828	0.5059551278
591994.283	1.600256544	1	65	1	3	4	17	2	9	1	591994.8831	0.5117916322
591995.8832	1.600112239	1	66	1	3	4	18	1	8	1	591996.4833	0.6063594749
591997.4833	1.600249266	1	67	1	3	4	19	1	8	1	591998.0834	0.5067477806
591999.0836	1.600265552	1	68	1	3	4	20	2	8	0	591999.6837	0.4100312691
592000.6838	1.600353043	1	69	1	3	4	21	1	9	1	592001.2839	0.6074637718
592002.2842	1.600140315	1	70	1	3	4	22	2	9	1	592002.8842	0.6067358371
592003.8843	1.600254836	1	71	1	3	4	23	2	9	1	592004.4844	0.6068172604
592005.4846	1.600258479	1	72	1	3	4	24	1	8	1	592006.0847	0.7044536163
592007.0848	1.600221238	1	73	1	9	5	1	3	n/a	n/a	n/a	n/a
592008.6851	1.600259564	1	74	1	9	5	2	3	n/a	n/a	n/a	n/a
592010.2853	1.600222621	1	75	1	9	5	3	3	n/a	n/a	n/a	n/a
592011.8855	1.600250585	1	76	1	9	5	4	3	n/a	n/a	n/a	n/a
592013.4858	1.60025606	1	77	1	9	5	5	3	n/a	n/a	n/a	n/a
592015.0861	1.600246647	1	78	1	9	5	6	3	n/a	n/a	n/a	n/a
592016.6863	1.600254044	1	79	1	9	5	7	3	n/a	n/a	n/a	n/a
592018.2866	1.600245169	1	80	1	9	5	8	3	n/a	n/a	n/a	n/a
592019.8868	1.600243704	1	81	1	9	5	9	3	n/a	n/a	n/a	n/a
592021.487	1.600242723	1	82	1	9	5	10	3	n/a	n/a	n/a	n/a
592023.0873	1.600232477	1	83	1	9	5	11	3	n/a	n/a	n/a	n/a
592024.6875	1.600260936	1	84	1	9	5	12	3	n/a	n/a	n/a	n/a
592026.2878	1.600299808	1	85	1	5	6	1	2	8	0	592026.8879	0.4118017566
592027.8881	1.600134965	1	86	1	5	6	2	1	9	1	592028.4881	0.4105210371
592029.4882	1.60029604	1	87	1	5	6	3	1	9	0	592030.0883	0.4064010903
592031.0885	1.600254427	1	88	1	5	6	4	1	10	1	592031.6886	0.5040229098
592032.6888	1.600259758	1	89	1	5	6	5	1	10	1	592033.2888	0.6076367605
592034.289	1.600284924	1	90	1	5	6	6	2	10	1	592034.8891	0.5066944804
592035.8893	1.600273303	1	91	1	5	6	7	2	9	0	592036.4894	0.4063015865
592037.4896	1.600137237	1	92	1	5	6	8	1	10	1	592038.0897	0.5030982022
592039.0897	1.600260061	1	93	1	5	6	9	1	10	0	592039.6898	0.5071570539
592040.69	1.600226525	1	94	1	5	6	10	1	11	1	592041.2901	0.5062719783
592042.2902	1.600250252	1	95	1	5	6	11	1	11	1	592042.8903	0.5069059512
592043.8905	1.60025881	1	96	1	5	6	12	2	11	1	592044.4906	0.4059469071
592045.4907	1.60024997	1	97	1	5	6	13	2	10	1	592046.0908	0.505596924
592047.091	1.600246791	1	98	1	5	6	14	2	10	1	592047.691	0.5060913865
592048.6912	1.60029469	1	99	1	5	6	15	1	10	1	592049.2913	0.5090536713
592050.2915	1.600274854	1	100	1	5	6	16	2	9	1	592050.8916	0.6063023108
592051.8918	1.600264083	1	101	1	5	6	17	1	9	1	592052.4919	0.6031336955
592053.492	1.600240695	1	102	1	5	6	18	2	9	1	592054.092	0.607429329
592055.0923	1.600107031	1	103	1	5	6	19	2	8	1	592055.6923	0.5079647521
592056.6924	1.600252607	1	104	1	5	6	20	2	8	1	592057.2925	0.6047884196
592058.2926	1.600276045	1	105	1	5	6	21	2	8	1	592058.8928	0.7073676615
592059.8929	1.600238677	1	106	1	5	6	22	1	7	0	592060.493	0.4049253848
592061.4932	1.600246413	1	107	1	5	6	23	2	8	0	592062.0932	0.4048235408
592063.0934	1.600248421	1	108	1	5	6	24	1	9	1	592063.6936	0.2057390914
592064.6937	1.600236479	1	109	1	9	7	1	3	n/a	n/a	n/a	n/a
592066.2939	1.600248664	1	110	1	9	7	2	3	n/a	n/a	n/a	n/a
592067.8941	1.600248364	1	111	1	9	7	3	3	n/a	n/a	n/a	n/a
592069.4944	1.600246836	1	112	1	9	7	4	3	n/a	n/a	n/a	n/a
592071.0946	1.600251291	1	113	1	9	7	5	3	n/a	n/a	n/a	n/a
592072.6949	1.600233769	1	114	1	9	7	6	3	n/a	n/a	n/a	n/a
592074.2951	1.600249264	1	115	1	9	7	7	3	n/a	n/a	n/a	n/a
592075.8954	1.600273263	1	116	1	9	7	8	3	n/a	n/a	n/a	n/a
592077.4956	1.60030103	1	117	1	9	7	9	3	n/a	n/a	n/a	n/a
592079.0959	1.600262198	1	118	1	9	7	10	3	n/a	n/a	n/a	n/a
592080.6962	1.600128507	1	119	1	9	7	11	3	n/a	n/a	n/a	n/a
592082.2963	1.600283484	1	120	1	9	7	12	3	n/a	n/a	n/a	n/a
592083.8966	1.600295007	1	121	1	7	8	1	1	9	1	592084.4967	0.2121112598
592085.4969	1.600277456	1	122	1	7	8	2	2	9	1	592086.097	0.404442289
592087.0972	1.600126668	1	123	1	7	8	3	1	8	1	592087.6973	0.6071777685
592088.6973	1.600249986	1	124	1	7	8	4	1	8	1	592089.2974	0.6077173658
592090.2976	1.600247967	1	125	1	7	8	5	2	8	1	592090.8977	0.5050860174
592091.8978	1.600245477	1	126	1	7	8	6	1	7	1	592092.4979	0.6071487174
592093.4981	1.600245234	1	127	1	7	8	7	1	7	0	592094.0982	0.8078568735
592095.0983	1.600266882	1	128	1	7	8	8	1	8	1	592095.6984	0.6070234659
592096.6986	1.600222614	1	129	1	7	8	9	2	8	1	592097.2986	0.5069830032
592098.2988	1.600289287	1	130	1	7	8	10	1	8	1	592098.8989	0.5046981799
592099.8991	1.600294907	1	131	1	7	8	11	2	7	1	592100.4992	0.5071744131
592101.4994	1.600250576	1	132	1	7	8	12	2	7	1	592102.0995	0.604394706
592103.0996	1.600129027	1	133	1	7	8	13	1	7	1	592103.6997	0.6089885088
592104.6998	1.600366542	1	134	1	7	8	14	1	6	1	592105.3	0.6086945684
592106.3001	1.600129725	1	135	1	7	8	15	2	6	1	592106.9001	0.4042805876
592107.9003	1.60025637	1	136	1	7	8	16	2	6	0	592108.5004	0.5049778876
592109.5005	1.600251083	1	137	1	7	8	17	2	7	1	592110.1006	0.4072981707
592111.1008	1.600233053	1	138	1	7	8	18	2	7	0	592111.7009	0.5054912772
592112.701	1.600368409	1	139	1	7	8	19	1	8	0	592113.3012	0.5061796218
592114.3014	1.60016043	1	140	1	7	8	20	2	9	0	592114.9013	0.5061334277
592115.9015	1.600209989	1	141	1	7	8	21	2	10	1	592116.5016	0.506869467
592117.5017	1.600298654	1	142	1	7	8	22	1	10	1	592118.1019	0.5070988321
592119.102	1.600298154	1	143	1	7	8	23	2	10	1	592119.7022	0.6094785485
592120.7023	1.60021711	1	144	1	7	8	24	1	9	1	592121.3024	0.416801275
592122.3025	1.600273388	1	145	1	9	9	1	3	n/a	n/a	n/a	n/a
592123.9028	1.600128141	1	146	1	9	9	2	3	n/a	n/a	n/a	n/a
592125.5029	1.6002451	1	147	1	9	9	3	3	n/a	n/a	n/a	n/a
592127.1032	1.600247431	1	148	1	9	9	4	3	n/a	n/a	n/a	n/a
592128.7034	1.600317482	1	149	1	9	9	5	3	n/a	n/a	n/a	n/a
592130.3038	1.60016275	1	150	1	9	9	6	3	n/a	n/a	n/a	n/a
592131.9039	1.600268387	1	151	1	9	9	7	3	n/a	n/a	n/a	n/a
592133.5042	1.600225206	1	152	1	9	9	8	3	n/a	n/a	n/a	n/a
592135.1044	1.600249034	1	153	1	9	9	9	3	n/a	n/a	n/a	n/a
592136.7047	1.60027709	1	154	1	9	9	10	3	n/a	n/a	n/a	n/a
592138.3049	1.600251319	1	155	1	9	9	11	3	n/a	n/a	n/a	n/a
592139.9052	1.600332423	1	156	1	9	9	12	3	n/a	n/a	n/a	n/a
