onset	duration	run_number	trial_number	att_task	bar_direction	bar_period	bar_step	stim_noise_ori	stim_stair_val	response_val	probe_time	reaction_time
783.6997533	1.598188273	2	1	1	9	1	1	3	n/a	n/a	n/a	n/a
785.2979416	1.600254131	2	2	1	9	1	2	3	n/a	n/a	n/a	n/a
786.8981957	1.600244274	2	3	1	9	1	3	3	n/a	n/a	n/a	n/a
788.49844	1.600244509	2	4	1	9	1	4	3	n/a	n/a	n/a	n/a
790.0986845	1.600249087	2	5	1	9	1	5	3	n/a	n/a	n/a	n/a
791.6989336	1.600231922	2	6	1	9	1	6	3	n/a	n/a	n/a	n/a
793.2991655	1.600182671	2	7	1	9	1	7	3	n/a	n/a	n/a	n/a
794.8993482	1.600407536	2	8	1	9	1	8	3	n/a	n/a	n/a	n/a
796.4997557	1.600123639	2	9	1	9	1	9	3	n/a	n/a	n/a	n/a
798.0998793	1.600257966	2	10	1	9	1	10	3	n/a	n/a	n/a	n/a
799.7001373	1.600266276	2	11	1	9	1	11	3	n/a	n/a	n/a	n/a
801.3004036	1.600275708	2	12	1	9	1	12	3	n/a	n/a	n/a	n/a
802.9006793	1.60028874	2	13	1	1	2	1	2	9	n/a	803.5008086	n/a
804.500968	1.60023775	2	14	1	1	2	2	1	9	n/a	805.1010662	n/a
806.1012058	1.600124115	2	15	1	1	2	3	1	9	n/a	806.7012037	n/a
807.7013299	1.600237922	2	16	1	1	2	4	1	9	n/a	808.3014202	n/a
809.3015678	1.600256542	2	17	1	1	2	5	1	9	n/a	809.9016796	n/a
810.9018244	1.600246759	2	18	1	1	2	6	2	9	n/a	811.5019304	n/a
812.5020711	1.600252567	2	19	1	1	2	7	1	9	n/a	813.1021546	n/a
814.1023237	1.600239617	2	20	1	1	2	8	1	9	n/a	814.7025092	n/a
815.7025633	1.600237924	2	21	1	1	2	9	2	9	n/a	816.3026395	n/a
817.3028012	1.600233044	2	22	1	1	2	10	1	9	n/a	817.9029006	n/a
818.9030343	1.600206651	2	23	1	1	2	11	2	9	n/a	819.5031262	n/a
820.5032409	1.600356439	2	24	1	1	2	12	2	9	n/a	821.1033628	n/a
822.1035974	1.600194955	2	25	1	1	2	13	1	9	n/a	822.7036345	n/a
823.7037923	1.600268884	2	26	1	1	2	14	1	9	n/a	824.3038838	n/a
825.3040612	1.600287197	2	27	1	1	2	15	2	9	n/a	825.9041866	n/a
826.9043484	1.6002511	2	28	1	1	2	16	1	9	n/a	827.5044486	n/a
828.5045995	1.600127817	2	29	1	1	2	17	1	9	n/a	829.1045897	n/a
830.1047273	1.600245222	2	30	1	1	2	18	1	9	n/a	830.704895	n/a
831.7049725	1.600251272	2	31	1	1	2	19	2	9	n/a	832.3050669	n/a
833.3052238	1.6002387	2	32	1	1	2	20	2	9	n/a	833.905316	n/a
834.9054625	1.600248657	2	33	1	1	2	21	2	9	n/a	835.5055495	n/a
836.5057112	1.600226365	2	34	1	1	2	22	2	9	n/a	837.1058011	n/a
838.1059375	1.600262181	2	35	1	1	2	23	2	9	n/a	838.7060416	n/a
839.7061997	1.60022823	2	36	1	1	2	24	2	9	n/a	840.3062846	n/a
841.3064279	1.600246987	2	37	1	9	3	1	3	n/a	n/a	n/a	n/a
842.9066749	1.600239685	2	38	1	9	3	2	3	n/a	n/a	n/a	n/a
844.5069146	1.600239535	2	39	1	9	3	3	3	n/a	n/a	n/a	n/a
846.1071541	1.600229117	2	40	1	9	3	4	3	n/a	n/a	n/a	n/a
847.7073833	1.600320845	2	41	1	9	3	5	3	n/a	n/a	n/a	n/a
849.3077041	1.600200762	2	42	1	9	3	6	3	n/a	n/a	n/a	n/a
850.9079049	1.60028122	2	43	1	9	3	7	3	n/a	n/a	n/a	n/a
852.5081861	1.600285266	2	44	1	9	3	8	3	n/a	n/a	n/a	n/a
854.1084714	1.600138474	2	45	1	9	3	9	3	n/a	n/a	n/a	n/a
855.7086098	1.600233313	2	46	1	9	3	10	3	n/a	n/a	n/a	n/a
857.3088431	1.600241102	2	47	1	9	3	11	3	n/a	n/a	n/a	n/a
858.9090842	1.600225278	2	48	1	9	3	12	3	n/a	n/a	n/a	n/a
860.5093095	1.60025104	2	49	1	3	4	1	2	9	n/a	861.1094034	n/a
862.1095606	1.600258831	2	50	1	3	4	2	1	9	n/a	862.7096625	n/a
863.7098194	1.600261307	2	51	1	3	4	3	1	9	n/a	864.3098991	n/a
865.3100807	1.600281197	2	52	1	3	4	4	1	9	n/a	865.910184	n/a
866.9103619	1.600283216	2	53	1	3	4	5	1	9	n/a	867.5104779	n/a
868.5106451	1.600237598	2	54	1	3	4	6	1	9	n/a	869.110735	n/a
870.1108827	1.600239145	2	55	1	3	4	7	2	9	n/a	870.7109755	n/a
871.7111219	1.60010953	2	56	1	3	4	8	1	9	n/a	872.3112157	n/a
873.3112314	1.600280107	2	57	1	3	4	9	2	9	n/a	873.9113277	n/a
874.9115115	1.600240063	2	58	1	3	4	10	1	9	n/a	875.5115758	n/a
876.5117516	1.600243709	2	59	1	3	4	11	1	9	n/a	877.111837	n/a
878.1119953	1.600232258	2	60	1	3	4	12	2	9	n/a	878.7120838	n/a
879.7122275	1.600224433	2	61	1	3	4	13	2	9	n/a	880.3123298	n/a
881.312452	1.600267694	2	62	1	3	4	14	1	9	n/a	881.9125707	n/a
882.9127196	1.600235215	2	63	1	3	4	15	2	9	n/a	883.5128021	n/a
884.5129549	1.600244209	2	64	1	3	4	16	1	9	n/a	885.1130567	n/a
886.1131991	1.600231772	2	65	1	3	4	17	2	9	n/a	886.7132849	n/a
887.7134308	1.600260748	2	66	1	3	4	18	1	9	n/a	888.3135158	n/a
889.3136916	1.600224854	2	67	1	3	4	19	1	9	n/a	889.9137469	n/a
890.9139164	1.600251494	2	68	1	3	4	20	1	9	n/a	891.5140118	n/a
892.5141679	1.60023688	2	69	1	3	4	21	1	9	n/a	893.1142504	n/a
894.1144048	1.600234935	2	70	1	3	4	22	2	9	n/a	894.7145015	n/a
895.7146398	1.600236545	2	71	1	3	4	23	1	9	n/a	896.3147533	n/a
897.3148763	1.600254828	2	72	1	3	4	24	2	9	n/a	897.9149722	n/a
898.9151311	1.600217069	2	73	1	9	5	1	3	n/a	n/a	n/a	n/a
900.5153482	1.600269389	2	74	1	9	5	2	3	n/a	n/a	n/a	n/a
902.1156176	1.600238961	2	75	1	9	5	3	3	n/a	n/a	n/a	n/a
903.7158565	1.600224833	2	76	1	9	5	4	3	n/a	n/a	n/a	n/a
905.3160814	1.600258635	2	77	1	9	5	5	3	n/a	n/a	n/a	n/a
906.91634	1.600234596	2	78	1	9	5	6	3	n/a	n/a	n/a	n/a
908.5165746	1.60028012	2	79	1	9	5	7	3	n/a	n/a	n/a	n/a
910.1168547	1.600285116	2	80	1	9	5	8	3	n/a	n/a	n/a	n/a
911.7171398	1.600266083	2	81	1	9	5	9	3	n/a	n/a	n/a	n/a
913.3174059	1.600129287	2	82	1	9	5	10	3	n/a	n/a	n/a	n/a
914.9175352	1.600351363	2	83	1	9	5	11	3	n/a	n/a	n/a	n/a
916.5178866	1.600134352	2	84	1	9	5	12	3	n/a	n/a	n/a	n/a
918.1180209	1.600227604	2	85	1	5	6	1	2	9	n/a	918.718115	n/a
919.7182485	1.600249515	2	86	1	5	6	2	2	9	n/a	920.3183708	n/a
921.3184981	1.600243644	2	87	1	5	6	3	2	9	n/a	921.9186126	n/a
922.9187417	1.600235289	2	88	1	5	6	4	1	9	n/a	923.5188257	n/a
924.518977	1.600257835	2	89	1	5	6	5	2	9	n/a	925.1191813	n/a
926.1192348	1.600236365	2	90	1	5	6	6	2	9	n/a	926.7193126	n/a
927.7194712	1.60025135	2	91	1	5	6	7	2	9	n/a	928.3195724	n/a
929.3197225	1.600231717	2	92	1	5	6	8	2	9	n/a	929.9197997	n/a
930.9199543	1.600244572	2	93	1	5	6	9	1	9	n/a	931.5200516	n/a
932.5201988	1.600245548	2	94	1	5	6	10	1	9	n/a	933.1203001	n/a
934.1204444	1.600227528	2	95	1	5	6	11	1	9	n/a	934.7205348	n/a
935.7206719	1.6002571	2	96	1	5	6	12	1	9	n/a	936.3207776	n/a
937.320929	1.600237648	2	97	1	5	6	13	2	9	n/a	937.9210221	n/a
938.9211666	1.600240607	2	98	1	5	6	14	1	9	n/a	939.5212661	n/a
940.5214073	1.600245045	2	99	1	5	6	15	1	9	n/a	941.1215029	n/a
942.1216523	1.600340778	2	100	1	5	6	16	2	9	n/a	942.7217297	n/a
943.7219931	1.600132126	2	101	1	5	6	17	1	9	n/a	944.3219782	n/a
945.3221252	1.600290597	2	102	1	5	6	18	1	9	n/a	945.9222315	n/a
946.9224158	1.600273236	2	103	1	5	6	19	2	9	n/a	947.5225265	n/a
948.522689	1.600281885	2	104	1	5	6	20	2	9	n/a	949.1227983	n/a
950.1229709	1.600236985	2	105	1	5	6	21	1	9	n/a	950.7230394	n/a
951.7232079	1.60018291	2	106	1	5	6	22	1	9	n/a	952.323294	n/a
953.3233908	1.600291914	2	107	1	5	6	23	1	9	n/a	953.923508	n/a
954.9236827	1.600123759	2	108	1	5	6	24	1	9	n/a	955.5237762	n/a
956.5238065	1.600282316	2	109	1	9	7	1	3	n/a	n/a	n/a	n/a
958.1240888	1.600289512	2	110	1	9	7	2	3	n/a	n/a	n/a	n/a
959.7243783	1.600277342	2	111	1	9	7	3	3	n/a	n/a	n/a	n/a
961.3246557	1.600123878	2	112	1	9	7	4	3	n/a	n/a	n/a	n/a
962.9247795	1.600226365	2	113	1	9	7	5	3	n/a	n/a	n/a	n/a
964.5250059	1.600249983	2	114	1	9	7	6	3	n/a	n/a	n/a	n/a
966.1252559	1.600233313	2	115	1	9	7	7	3	n/a	n/a	n/a	n/a
967.7254892	1.600337221	2	116	1	9	7	8	3	n/a	n/a	n/a	n/a
969.3258264	1.600175225	2	117	1	9	7	9	3	n/a	n/a	n/a	n/a
970.9260016	1.600245344	2	118	1	9	7	10	3	n/a	n/a	n/a	n/a
972.526247	1.600230785	2	119	1	9	7	11	3	n/a	n/a	n/a	n/a
974.1264778	1.600250076	2	120	1	9	7	12	3	n/a	n/a	n/a	n/a
975.7267278	1.600269112	2	121	1	7	8	1	2	9	n/a	976.326814	n/a
977.326997	1.60030154	2	122	1	7	8	2	1	9	n/a	977.9271221	n/a
978.9272985	1.600240102	2	123	1	7	8	3	2	9	n/a	979.527396	n/a
980.5275386	1.600131931	2	124	1	7	8	4	1	9	n/a	981.1276349	n/a
982.1276705	1.600249089	2	125	1	7	8	5	1	9	n/a	982.7277723	n/a
983.7279196	1.600247087	2	126	1	7	8	6	2	9	n/a	984.3280191	n/a
985.3281667	1.600233855	2	127	1	7	8	7	2	9	n/a	985.9282697	n/a
986.9284006	1.600250596	2	128	1	7	8	8	2	9	n/a	987.5284962	n/a
988.5286512	1.600227665	2	129	1	7	8	9	2	9	n/a	989.1287328	n/a
990.1288788	1.600251809	2	130	1	7	8	10	2	9	n/a	990.728982	n/a
991.7291306	1.600264892	2	131	1	7	8	11	1	9	n/a	992.3292167	n/a
993.3293955	1.600295192	2	132	1	7	8	12	2	9	n/a	993.9295011	n/a
994.9296907	1.600264692	2	133	1	7	8	13	1	9	n/a	995.52979	n/a
996.5299554	1.600254313	2	134	1	7	8	14	2	9	n/a	997.1300602	n/a
998.1302097	1.600113304	2	135	1	7	8	15	2	9	n/a	998.7301665	n/a
999.730323	1.600232804	2	136	1	7	8	16	2	9	n/a	1000.330408	n/a
1001.330556	1.600262148	2	137	1	7	8	17	2	9	n/a	1001.93067	n/a
1002.930818	1.600251155	2	138	1	7	8	18	2	9	n/a	1003.53102	n/a
1004.531069	1.600239291	2	139	1	7	8	19	1	9	n/a	1005.131128	n/a
1006.131308	1.600242711	2	140	1	7	8	20	2	9	n/a	1006.731395	n/a
1007.731551	1.600235885	2	141	1	7	8	21	1	9	n/a	1008.331623	n/a
1009.331787	1.6002461	2	142	1	7	8	22	1	9	n/a	1009.931909	n/a
1010.932033	1.600227424	2	143	1	7	8	23	1	9	n/a	1011.532125	n/a
1012.532261	1.600249767	2	144	1	7	8	24	2	9	n/a	1013.132361	n/a
1014.13251	1.600296392	2	145	1	9	9	1	3	n/a	n/a	n/a	n/a
1015.732807	1.600296164	2	146	1	9	9	2	3	n/a	n/a	n/a	n/a
1017.333103	1.600245407	2	147	1	9	9	3	3	n/a	n/a	n/a	n/a
1018.933348	1.600118626	2	148	1	9	9	4	3	n/a	n/a	n/a	n/a
1020.533467	1.600242335	2	149	1	9	9	5	3	n/a	n/a	n/a	n/a
1022.133709	1.600238315	2	150	1	9	9	6	3	n/a	n/a	n/a	n/a
1023.733948	1.600244798	2	151	1	9	9	7	3	n/a	n/a	n/a	n/a
1025.334192	1.60025482	2	152	1	9	9	8	3	n/a	n/a	n/a	n/a
1026.934447	1.600252474	2	153	1	9	9	9	3	n/a	n/a	n/a	n/a
1028.5347	1.600228202	2	154	1	9	9	10	3	n/a	n/a	n/a	n/a
1030.134928	1.600245233	2	155	1	9	9	11	3	n/a	n/a	n/a	n/a
1031.735173	1.600258824	2	156	1	9	9	12	3	n/a	n/a	n/a	n/a
