onset	duration	run_number	trial_number	att_task	bar_direction	bar_period	bar_step	stim_noise_ori	stim_stair_val	response_val	probe_time	reaction_time
74693.53374	1.597750641	1	1	1	9	1	1	3	n/a	n/a	n/a	n/a
74695.13149	1.600248713	1	2	1	9	1	2	3	n/a	n/a	n/a	n/a
74696.73174	1.600232496	1	3	1	9	1	3	3	n/a	n/a	n/a	n/a
74698.33198	1.600247937	1	4	1	9	1	4	3	n/a	n/a	n/a	n/a
74699.93222	1.600348944	1	5	1	9	1	5	3	n/a	n/a	n/a	n/a
74701.53257	1.600235165	1	6	1	9	1	6	3	n/a	n/a	n/a	n/a
74703.13281	1.600176671	1	7	1	9	1	7	3	n/a	n/a	n/a	n/a
74704.73298	1.600276401	1	8	1	9	1	8	3	n/a	n/a	n/a	n/a
74706.33326	1.600261111	1	9	1	9	1	9	3	n/a	n/a	n/a	n/a
74707.93352	1.600121336	1	10	1	9	1	10	3	n/a	n/a	n/a	n/a
74709.53364	1.600229874	1	11	1	9	1	11	3	n/a	n/a	n/a	n/a
74711.13387	1.600241858	1	12	1	9	1	12	3	n/a	n/a	n/a	n/a
74712.73411	1.600241898	1	13	1	1	2	1	1	9	n/a	74713.33421	n/a
74714.33436	1.600240474	1	14	1	1	2	2	2	9	n/a	74714.93445	n/a
74715.9346	1.600240893	1	15	1	1	2	3	2	9	n/a	74716.53469	n/a
74717.53484	1.600236093	1	16	1	1	2	4	1	9	n/a	74718.13493	n/a
74719.13507	1.600243724	1	17	1	1	2	5	2	9	n/a	74719.73515	n/a
74720.73532	1.600240117	1	18	1	1	2	6	1	9	n/a	74721.33541	n/a
74722.33556	1.600282752	1	19	1	1	2	7	2	9	n/a	74722.93566	n/a
74723.93584	1.600278532	1	20	1	1	2	8	2	9	n/a	74724.53594	n/a
74725.53612	1.600256043	1	21	1	1	2	9	2	9	n/a	74726.13622	n/a
74727.13638	1.600246573	1	22	1	1	2	10	1	9	n/a	74727.73646	n/a
74728.73662	1.6000953	1	23	1	1	2	11	2	9	n/a	74729.33657	n/a
74730.33672	1.600244809	1	24	1	1	2	12	1	9	n/a	74730.93681	n/a
74731.93696	1.600231489	1	25	1	1	2	13	2	9	n/a	74732.53705	n/a
74733.53719	1.600253265	1	26	1	1	2	14	1	9	n/a	74734.13729	n/a
74735.13745	1.600245493	1	27	1	1	2	15	2	9	n/a	74735.73754	n/a
74736.73769	1.600229411	1	28	1	1	2	16	2	9	n/a	74737.33777	n/a
74738.33792	1.600246106	1	29	1	1	2	17	2	9	n/a	74738.93801	n/a
74739.93817	1.60022895	1	30	1	1	2	18	2	9	n/a	74740.53825	n/a
74741.5384	1.600249182	1	31	1	1	2	19	2	9	n/a	74742.13849	n/a
74743.13865	1.600237793	1	32	1	1	2	20	2	9	n/a	74743.73873	n/a
74744.73888	1.60028066	1	33	1	1	2	21	1	9	n/a	74745.33899	n/a
74746.33916	1.600286873	1	34	1	1	2	22	2	9	n/a	74746.93927	n/a
74747.93945	1.600243598	1	35	1	1	2	23	2	9	n/a	74748.53954	n/a
74749.53969	1.600112321	1	36	1	1	2	24	2	9	n/a	74750.13967	n/a
74751.13981	1.600248809	1	37	1	9	3	1	3	n/a	n/a	n/a	n/a
74752.74006	1.600230218	1	38	1	9	3	2	3	n/a	n/a	n/a	n/a
74754.34029	1.600249028	1	39	1	9	3	3	3	n/a	n/a	n/a	n/a
74755.94054	1.600231216	1	40	1	9	3	4	3	n/a	n/a	n/a	n/a
74757.54077	1.600238358	1	41	1	9	3	5	3	n/a	n/a	n/a	n/a
74759.141	1.600254998	1	42	1	9	3	6	3	n/a	n/a	n/a	n/a
74760.74126	1.600232242	1	43	1	9	3	7	3	n/a	n/a	n/a	n/a
74762.34149	1.600231135	1	44	1	9	3	8	3	n/a	n/a	n/a	n/a
74763.94172	1.600240748	1	45	1	9	3	9	3	n/a	n/a	n/a	n/a
74765.54196	1.600262265	1	46	1	9	3	10	3	n/a	n/a	n/a	n/a
74767.14223	1.60032792	1	47	1	9	3	11	3	n/a	n/a	n/a	n/a
74768.74255	1.600230928	1	48	1	9	3	12	3	n/a	n/a	n/a	n/a
74770.34279	1.600121447	1	49	1	3	4	1	2	9	n/a	74770.94288	n/a
74771.94291	1.600233731	1	50	1	3	4	2	1	9	n/a	74772.543	n/a
74773.54314	1.600244365	1	51	1	3	4	3	2	9	n/a	74774.14323	n/a
74775.14338	1.600243465	1	52	1	3	4	4	2	9	n/a	74775.74348	n/a
74776.74363	1.60023832	1	53	1	3	4	5	1	9	n/a	74777.34372	n/a
74778.34387	1.600220124	1	54	1	3	4	6	2	9	n/a	74778.94401	n/a
74779.94409	1.600256021	1	55	1	3	4	7	1	9	n/a	74780.54419	n/a
74781.54434	1.600235867	1	56	1	3	4	8	2	9	n/a	74782.14444	n/a
74783.14458	1.600251265	1	57	1	3	4	9	2	9	n/a	74783.7448	n/a
74784.74483	1.600234724	1	58	1	3	4	10	1	9	n/a	74785.34491	n/a
74786.34506	1.600236889	1	59	1	3	4	11	1	9	n/a	74786.94515	n/a
74787.9453	1.60023728	1	60	1	3	4	12	2	9	n/a	74788.5455	n/a
74789.54554	1.60023802	1	61	1	3	4	13	2	9	n/a	74790.14561	n/a
74791.14578	1.600233491	1	62	1	3	4	14	1	9	n/a	74791.74587	n/a
74792.74601	1.600243107	1	63	1	3	4	15	2	9	n/a	74793.3461	n/a
74794.34625	1.600237261	1	64	1	3	4	16	1	9	n/a	74794.94633	n/a
74795.94649	1.600277912	1	65	1	3	4	17	2	9	n/a	74796.5466	n/a
74797.54677	1.600277052	1	66	1	3	4	18	1	9	n/a	74798.14686	n/a
74799.14705	1.600288867	1	67	1	3	4	19	1	9	n/a	74799.74715	n/a
74800.74733	1.600108608	1	68	1	3	4	20	1	9	n/a	74801.34741	n/a
74802.34744	1.600214531	1	69	1	3	4	21	2	9	n/a	74802.94752	n/a
74803.94766	1.600253006	1	70	1	3	4	22	2	9	n/a	74804.54775	n/a
74805.54791	1.600232705	1	71	1	3	4	23	2	9	n/a	74806.148	n/a
74807.14814	1.600252302	1	72	1	3	4	24	2	9	n/a	74807.74824	n/a
74808.7484	1.600254636	1	73	1	9	5	1	3	n/a	n/a	n/a	n/a
74810.34865	1.600296232	1	74	1	9	5	2	3	n/a	n/a	n/a	n/a
74811.94895	1.600259582	1	75	1	9	5	3	3	n/a	n/a	n/a	n/a
74813.54921	1.600248259	1	76	1	9	5	4	3	n/a	n/a	n/a	n/a
74815.14945	1.600093081	1	77	1	9	5	5	3	n/a	n/a	n/a	n/a
74816.74955	1.600255089	1	78	1	9	5	6	3	n/a	n/a	n/a	n/a
74818.3498	1.600234258	1	79	1	9	5	7	3	n/a	n/a	n/a	n/a
74819.95004	1.600244517	1	80	1	9	5	8	3	n/a	n/a	n/a	n/a
74821.55028	1.600341938	1	81	1	9	5	9	3	n/a	n/a	n/a	n/a
74823.15062	1.600157116	1	82	1	9	5	10	3	n/a	n/a	n/a	n/a
74824.75078	1.600238891	1	83	1	9	5	11	3	n/a	n/a	n/a	n/a
74826.35102	1.600234639	1	84	1	9	5	12	3	n/a	n/a	n/a	n/a
74827.95125	1.600244261	1	85	1	5	6	1	2	9	n/a	74828.55134	n/a
74829.5515	1.600227931	1	86	1	5	6	2	1	9	n/a	74830.15158	n/a
74831.15173	1.600239852	1	87	1	5	6	3	1	9	n/a	74831.75188	n/a
74832.75197	1.600237143	1	88	1	5	6	4	2	9	n/a	74833.35206	n/a
74834.3522	1.600246633	1	89	1	5	6	5	1	9	n/a	74834.95231	n/a
74835.95245	1.600241244	1	90	1	5	6	6	2	9	n/a	74836.55254	n/a
74837.55269	1.600232556	1	91	1	5	6	7	2	9	n/a	74838.15278	n/a
74839.15292	1.600247665	1	92	1	5	6	8	2	9	n/a	74839.75302	n/a
74840.75317	1.600235204	1	93	1	5	6	9	1	9	n/a	74841.35326	n/a
74842.35341	1.600236196	1	94	1	5	6	10	2	9	n/a	74842.9535	n/a
74843.95364	1.600251774	1	95	1	5	6	11	2	9	n/a	74844.55374	n/a
74845.55389	1.600233423	1	96	1	5	6	12	1	9	n/a	74846.15397	n/a
74847.15413	1.600226687	1	97	1	5	6	13	1	9	n/a	74847.75422	n/a
74848.75435	1.600235437	1	98	1	5	6	14	1	9	n/a	74849.35445	n/a
74850.35459	1.600260454	1	99	1	5	6	15	1	9	n/a	74850.95468	n/a
74851.95485	1.600263754	1	100	1	5	6	16	1	9	n/a	74852.55492	n/a
74853.55511	1.60027866	1	101	1	5	6	17	1	9	n/a	74854.15522	n/a
74855.15539	1.600282896	1	102	1	5	6	18	1	9	n/a	74855.7555	n/a
74856.75568	1.600096314	1	103	1	5	6	19	2	9	n/a	74857.35564	n/a
74858.35577	1.600242848	1	104	1	5	6	20	1	9	n/a	74858.95587	n/a
74859.95601	1.600235324	1	105	1	5	6	21	1	9	n/a	74860.55611	n/a
74861.55625	1.600242496	1	106	1	5	6	22	2	9	n/a	74862.15635	n/a
74863.15649	1.600345848	1	107	1	5	6	23	1	9	n/a	74863.75658	n/a
74864.75684	1.6001324	1	108	1	5	6	24	2	9	n/a	74865.35682	n/a
74866.35697	1.600254796	1	109	1	9	7	1	3	n/a	n/a	n/a	n/a
74867.95723	1.600222428	1	110	1	9	7	2	3	n/a	n/a	n/a	n/a
74869.55745	1.600230624	1	111	1	9	7	3	3	n/a	n/a	n/a	n/a
74871.15768	1.600354101	1	112	1	9	7	4	3	n/a	n/a	n/a	n/a
74872.75803	1.600107363	1	113	1	9	7	5	3	n/a	n/a	n/a	n/a
74874.35814	1.600261956	1	114	1	9	7	6	3	n/a	n/a	n/a	n/a
74875.9584	1.600227204	1	115	1	9	7	7	3	n/a	n/a	n/a	n/a
74877.55863	1.600246563	1	116	1	9	7	8	3	n/a	n/a	n/a	n/a
74879.15888	1.60024176	1	117	1	9	7	9	3	n/a	n/a	n/a	n/a
74880.75912	1.600218231	1	118	1	9	7	10	3	n/a	n/a	n/a	n/a
74882.35934	1.600268687	1	119	1	9	7	11	3	n/a	n/a	n/a	n/a
74883.9596	1.600226956	1	120	1	9	7	12	3	n/a	n/a	n/a	n/a
74885.55983	1.600233624	1	121	1	7	8	1	2	9	n/a	74886.15992	n/a
74887.16007	1.600241172	1	122	1	7	8	2	1	9	n/a	74887.76016	n/a
74888.76031	1.60032832	1	123	1	7	8	3	1	9	n/a	74889.3604	n/a
74890.36063	1.600153666	1	124	1	7	8	4	2	9	n/a	74890.96063	n/a
74891.96079	1.600238011	1	125	1	7	8	5	2	9	n/a	74892.56087	n/a
74893.56103	1.600255974	1	126	1	7	8	6	1	9	n/a	74894.16112	n/a
74895.16128	1.600273025	1	127	1	7	8	7	1	9	n/a	74895.76139	n/a
74896.76156	1.600286339	1	128	1	7	8	8	2	9	n/a	74897.36167	n/a
74898.36184	1.600230646	1	129	1	7	8	9	2	9	n/a	74898.96192	n/a
74899.96207	1.600143237	1	130	1	7	8	10	1	9	n/a	74900.56206	n/a
74901.56222	1.600245495	1	131	1	7	8	11	1	9	n/a	74902.1623	n/a
74903.16246	1.600278312	1	132	1	7	8	12	1	9	n/a	74903.76256	n/a
74904.76274	1.60028198	1	133	1	7	8	13	1	9	n/a	74905.36285	n/a
74906.36302	1.600252498	1	134	1	7	8	14	1	9	n/a	74906.96312	n/a
74907.96327	1.600116639	1	135	1	7	8	15	2	9	n/a	74908.56324	n/a
74909.56339	1.600160087	1	136	1	7	8	16	1	9	n/a	74910.16348	n/a
74911.16355	1.600318292	1	137	1	7	8	17	1	9	n/a	74911.76372	n/a
74912.76387	1.600352053	1	138	1	7	8	18	2	9	n/a	74913.36397	n/a
74914.36422	1.600119745	1	139	1	7	8	19	1	9	n/a	74914.96431	n/a
74915.96434	1.600280732	1	140	1	7	8	20	2	9	n/a	74916.56444	n/a
74917.56462	1.600283901	1	141	1	7	8	21	2	9	n/a	74918.1648	n/a
74919.16491	1.600269706	1	142	1	7	8	22	1	9	n/a	74919.76502	n/a
74920.76517	1.600125947	1	143	1	7	8	23	2	9	n/a	74921.36527	n/a
74922.3653	1.600236648	1	144	1	7	8	24	1	9	n/a	74922.96539	n/a
74923.96554	1.600249656	1	145	1	9	9	1	3	n/a	n/a	n/a	n/a
74925.56579	1.600226044	1	146	1	9	9	2	3	n/a	n/a	n/a	n/a
74927.16601	1.600247437	1	147	1	9	9	3	3	n/a	n/a	n/a	n/a
74928.76626	1.600222994	1	148	1	9	9	4	3	n/a	n/a	n/a	n/a
74930.36648	1.600249178	1	149	1	9	9	5	3	n/a	n/a	n/a	n/a
74931.96673	1.600260374	1	150	1	9	9	6	3	n/a	n/a	n/a	n/a
74933.56699	1.600217181	1	151	1	9	9	7	3	n/a	n/a	n/a	n/a
74935.16721	1.600275343	1	152	1	9	9	8	3	n/a	n/a	n/a	n/a
74936.76749	1.600286152	1	153	1	9	9	9	3	n/a	n/a	n/a	n/a
74938.36777	1.600269693	1	154	1	9	9	10	3	n/a	n/a	n/a	n/a
74939.96804	1.600087919	1	155	1	9	9	11	3	n/a	n/a	n/a	n/a
74941.56813	1.600381352	1	156	1	9	9	12	3	n/a	n/a	n/a	n/a
