onset	duration	run_number	trial_number	att_task	bar_direction	bar_period	bar_step	stim_noise_ori	stim_stair_val	response_val	probe_time	reaction_time
40753.12172	1.601572534	2	1	1	9	1	1	3	n/a	n/a	n/a	n/a
40754.72329	1.600343601	2	2	1	9	1	2	3	n/a	n/a	n/a	n/a
40756.32363	1.600130975	2	3	1	9	1	3	3	n/a	n/a	n/a	n/a
40757.92377	1.600219744	2	4	1	9	1	4	3	n/a	n/a	n/a	n/a
40759.52399	1.600243536	2	5	1	9	1	5	3	n/a	n/a	n/a	n/a
40761.12423	1.600287323	2	6	1	9	1	6	3	n/a	n/a	n/a	n/a
40762.72452	1.600286134	2	7	1	9	1	7	3	n/a	n/a	n/a	n/a
40764.3248	1.600261212	2	8	1	9	1	8	3	n/a	n/a	n/a	n/a
40765.92506	1.600100857	2	9	1	9	1	9	3	n/a	n/a	n/a	n/a
40767.52516	1.600241131	2	10	1	9	1	10	3	n/a	n/a	n/a	n/a
40769.12541	1.6002433	2	11	1	9	1	11	3	n/a	n/a	n/a	n/a
40770.72565	1.600329756	2	12	1	9	1	12	3	n/a	n/a	n/a	n/a
40772.32598	1.600158676	2	13	1	1	2	1	1	9	n/a	40772.92599	n/a
40773.92614	1.60023878	2	14	1	1	2	2	1	9	n/a	40774.52623	n/a
40775.52638	1.600230153	2	15	1	1	2	3	1	9	n/a	40776.12647	n/a
40777.12661	1.600237026	2	16	1	1	2	4	1	9	n/a	40777.7267	n/a
40778.72684	1.600248091	2	17	1	1	2	5	1	9	n/a	40779.32694	n/a
40780.32709	1.600224	2	18	1	1	2	6	2	9	n/a	40780.92723	n/a
40781.92732	1.600289008	2	19	1	1	2	7	2	9	n/a	40782.52742	n/a
40783.5276	1.600286781	2	20	1	1	2	8	2	9	n/a	40784.12772	n/a
40785.12789	1.600259794	2	21	1	1	2	9	1	9	n/a	40785.728	n/a
40786.72815	1.600104635	2	22	1	1	2	10	1	9	n/a	40787.3281	n/a
40788.32826	1.600248042	2	23	1	1	2	11	2	9	n/a	40788.92835	n/a
40789.9285	1.600244027	2	24	1	1	2	12	1	9	n/a	40790.52859	n/a
40791.52875	1.600235809	2	25	1	1	2	13	1	9	n/a	40792.12883	n/a
40793.12898	1.600240873	2	26	1	1	2	14	1	9	n/a	40793.72907	n/a
40794.72922	1.600239695	2	27	1	1	2	15	1	9	n/a	40795.32931	n/a
40796.32946	1.600236842	2	28	1	1	2	16	1	9	n/a	40796.92958	n/a
40797.9297	1.600297195	2	29	1	1	2	17	1	9	n/a	40798.52979	n/a
40799.53	1.600175439	2	30	1	1	2	18	2	9	n/a	40800.13002	n/a
40801.13017	1.600236453	2	31	1	1	2	19	2	9	n/a	40801.73027	n/a
40802.73041	1.600235505	2	32	1	1	2	20	2	9	n/a	40803.33051	n/a
40804.33065	1.600248663	2	33	1	1	2	21	1	9	n/a	40804.93074	n/a
40805.93089	1.600293486	2	34	1	1	2	22	2	9	n/a	40806.53101	n/a
40807.53119	1.600271181	2	35	1	1	2	23	2	9	n/a	40808.13128	n/a
40809.13146	1.600124255	2	36	1	1	2	24	1	9	n/a	40809.73157	n/a
40810.73158	1.600251836	2	37	1	9	3	1	3	n/a	n/a	n/a	n/a
40812.33183	1.600237654	2	38	1	9	3	2	3	n/a	n/a	n/a	n/a
40813.93207	1.600244349	2	39	1	9	3	3	3	n/a	n/a	n/a	n/a
40815.53232	1.600235316	2	40	1	9	3	4	3	n/a	n/a	n/a	n/a
40817.13255	1.600237713	2	41	1	9	3	5	3	n/a	n/a	n/a	n/a
40818.73279	1.600239424	2	42	1	9	3	6	3	n/a	n/a	n/a	n/a
40820.33303	1.600236482	2	43	1	9	3	7	3	n/a	n/a	n/a	n/a
40821.93327	1.600236452	2	44	1	9	3	8	3	n/a	n/a	n/a	n/a
40823.5335	1.600242137	2	45	1	9	3	9	3	n/a	n/a	n/a	n/a
40825.13374	1.600231682	2	46	1	9	3	10	3	n/a	n/a	n/a	n/a
40826.73398	1.600233967	2	47	1	9	3	11	3	n/a	n/a	n/a	n/a
40828.33421	1.600244362	2	48	1	9	3	12	3	n/a	n/a	n/a	n/a
40829.93445	1.600239582	2	49	1	3	4	1	1	9	n/a	40830.53454	n/a
40831.53469	1.60027315	2	50	1	3	4	2	1	9	n/a	40832.13479	n/a
40833.13497	1.600284628	2	51	1	3	4	3	2	9	n/a	40833.73507	n/a
40834.73525	1.600265059	2	52	1	3	4	4	1	9	n/a	40835.33535	n/a
40836.33552	1.600107259	2	53	1	3	4	5	2	9	n/a	40836.9356	n/a
40837.93562	1.600248674	2	54	1	3	4	6	2	9	n/a	40838.53573	n/a
40839.53587	1.600235529	2	55	1	3	4	7	1	9	n/a	40840.13596	n/a
40841.13611	1.600232846	2	56	1	3	4	8	2	9	n/a	40841.73621	n/a
40842.73634	1.600239929	2	57	1	3	4	9	1	9	n/a	40843.33643	n/a
40844.33658	1.600243873	2	58	1	3	4	10	2	9	n/a	40844.93668	n/a
40845.93683	1.600281745	2	59	1	3	4	11	1	9	n/a	40846.53692	n/a
40847.53711	1.600280839	2	60	1	3	4	12	1	9	n/a	40848.13721	n/a
40849.13739	1.600258889	2	61	1	3	4	13	2	9	n/a	40849.7375	n/a
40850.73765	1.600235284	2	62	1	3	4	14	1	9	n/a	40851.33774	n/a
40852.33788	1.600093083	2	63	1	3	4	15	2	9	n/a	40852.93798	n/a
40853.93797	1.600261708	2	64	1	3	4	16	2	9	n/a	40854.53807	n/a
40855.53824	1.600237897	2	65	1	3	4	17	2	9	n/a	40856.13832	n/a
40857.13847	1.600249274	2	66	1	3	4	18	1	9	n/a	40857.73857	n/a
40858.73872	1.60024516	2	67	1	3	4	19	1	9	n/a	40859.3388	n/a
40860.33897	1.600234505	2	68	1	3	4	20	1	9	n/a	40860.93905	n/a
40861.9392	1.600267089	2	69	1	3	4	21	2	9	n/a	40862.53929	n/a
40863.53947	1.600212058	2	70	1	3	4	22	2	9	n/a	40864.13946	n/a
40865.13968	1.600341141	2	71	1	3	4	23	1	9	n/a	40865.73985	n/a
40866.74002	1.600137889	2	72	1	3	4	24	2	9	n/a	40867.34001	n/a
40868.34016	1.600234176	2	73	1	9	5	1	3	n/a	n/a	n/a	n/a
40869.9404	1.600236022	2	74	1	9	5	2	3	n/a	n/a	n/a	n/a
40871.54063	1.600245343	2	75	1	9	5	3	3	n/a	n/a	n/a	n/a
40873.14088	1.600236793	2	76	1	9	5	4	3	n/a	n/a	n/a	n/a
40874.74111	1.600225164	2	77	1	9	5	5	3	n/a	n/a	n/a	n/a
40876.34134	1.600241795	2	78	1	9	5	6	3	n/a	n/a	n/a	n/a
40877.94158	1.60024852	2	79	1	9	5	7	3	n/a	n/a	n/a	n/a
40879.54183	1.600232069	2	80	1	9	5	8	3	n/a	n/a	n/a	n/a
40881.14206	1.6002374	2	81	1	9	5	9	3	n/a	n/a	n/a	n/a
40882.7423	1.600236135	2	82	1	9	5	10	3	n/a	n/a	n/a	n/a
40884.34253	1.600233329	2	83	1	9	5	11	3	n/a	n/a	n/a	n/a
40885.94277	1.600234024	2	84	1	9	5	12	3	n/a	n/a	n/a	n/a
40887.543	1.600239384	2	85	1	5	6	1	1	9	n/a	40888.1431	n/a
40889.14324	1.600237224	2	86	1	5	6	2	2	9	n/a	40889.74332	n/a
40890.74348	1.600277767	2	87	1	5	6	3	2	9	n/a	40891.34358	n/a
40892.34376	1.6002994	2	88	1	5	6	4	2	9	n/a	40892.94386	n/a
40893.94406	1.600243344	2	89	1	5	6	5	2	9	n/a	40894.54414	n/a
40895.5443	1.60012241	2	90	1	5	6	6	1	9	n/a	40896.14438	n/a
40897.14442	1.600235095	2	91	1	5	6	7	1	9	n/a	40897.74452	n/a
40898.74466	1.600244347	2	92	1	5	6	8	2	9	n/a	40899.34475	n/a
40900.3449	1.600226716	2	93	1	5	6	9	1	9	n/a	40900.94501	n/a
40901.94513	1.600252038	2	94	1	5	6	10	1	9	n/a	40902.54534	n/a
40903.54538	1.600236034	2	95	1	5	6	11	1	9	n/a	40904.1455	n/a
40905.14562	1.600251544	2	96	1	5	6	12	2	9	n/a	40905.74571	n/a
40906.74587	1.600229569	2	97	1	5	6	13	2	9	n/a	40907.34595	n/a
40908.3461	1.600276697	2	98	1	5	6	14	2	9	n/a	40908.94618	n/a
40909.94637	1.600201297	2	99	1	5	6	15	1	9	n/a	40910.54641	n/a
40911.54658	1.600246348	2	100	1	5	6	16	2	9	n/a	40912.14666	n/a
40913.14682	1.60021674	2	101	1	5	6	17	1	9	n/a	40913.7469	n/a
40914.74704	1.600241842	2	102	1	5	6	18	1	9	n/a	40915.34713	n/a
40916.34728	1.600242324	2	103	1	5	6	19	1	9	n/a	40916.94737	n/a
40917.94752	1.600307217	2	104	1	5	6	20	1	9	n/a	40918.54762	n/a
40919.54783	1.600164418	2	105	1	5	6	21	1	9	n/a	40920.14785	n/a
40921.14799	1.600244854	2	106	1	5	6	22	2	9	n/a	40921.74808	n/a
40922.74824	1.600237629	2	107	1	5	6	23	2	9	n/a	40923.34832	n/a
40924.34848	1.60023124	2	108	1	5	6	24	2	9	n/a	40924.94856	n/a
40925.94871	1.600268367	2	109	1	9	7	1	3	n/a	n/a	n/a	n/a
40927.54898	1.600286439	2	110	1	9	7	2	3	n/a	n/a	n/a	n/a
40929.14926	1.600264036	2	111	1	9	7	3	3	n/a	n/a	n/a	n/a
40930.74953	1.600243865	2	112	1	9	7	4	3	n/a	n/a	n/a	n/a
40932.34977	1.600135413	2	113	1	9	7	5	3	n/a	n/a	n/a	n/a
40933.94991	1.600281957	2	114	1	9	7	6	3	n/a	n/a	n/a	n/a
40935.55019	1.600264628	2	115	1	9	7	7	3	n/a	n/a	n/a	n/a
40937.15045	1.60026238	2	116	1	9	7	8	3	n/a	n/a	n/a	n/a
40938.75071	1.600180885	2	117	1	9	7	9	3	n/a	n/a	n/a	n/a
40940.3509	1.600279539	2	118	1	9	7	10	3	n/a	n/a	n/a	n/a
40941.95118	1.600255474	2	119	1	9	7	11	3	n/a	n/a	n/a	n/a
40943.55143	1.600103288	2	120	1	9	7	12	3	n/a	n/a	n/a	n/a
40945.15153	1.600373235	2	121	1	7	8	1	2	9	n/a	40945.75176	n/a
40946.75191	1.600122739	2	122	1	7	8	2	2	9	n/a	40947.35188	n/a
40948.35203	1.600234776	2	123	1	7	8	3	2	9	n/a	40948.95211	n/a
40949.95226	1.600240213	2	124	1	7	8	4	2	9	n/a	40950.55235	n/a
40951.55251	1.600235929	2	125	1	7	8	5	2	9	n/a	40952.15259	n/a
40953.15274	1.600246881	2	126	1	7	8	6	2	9	n/a	40953.75283	n/a
40954.75299	1.600234008	2	127	1	7	8	7	2	9	n/a	40955.35308	n/a
40956.35322	1.600271385	2	128	1	7	8	8	1	9	n/a	40956.95332	n/a
40957.95349	1.600283457	2	129	1	7	8	9	2	9	n/a	40958.5536	n/a
40959.55378	1.600137895	2	130	1	7	8	10	2	9	n/a	40960.15389	n/a
40961.15391	1.600236565	2	131	1	7	8	11	1	9	n/a	40961.75412	n/a
40962.75415	1.600244371	2	132	1	7	8	12	2	9	n/a	40963.35425	n/a
40964.3544	1.600240765	2	133	1	7	8	13	2	9	n/a	40964.95449	n/a
40965.95464	1.600219439	2	134	1	7	8	14	1	9	n/a	40966.55472	n/a
40967.55486	1.600258854	2	135	1	7	8	15	1	9	n/a	40968.15496	n/a
40969.15511	1.600245429	2	136	1	7	8	16	2	9	n/a	40969.7552	n/a
40970.75536	1.600235598	2	137	1	7	8	17	1	9	n/a	40971.35545	n/a
40972.3556	1.6002382	2	138	1	7	8	18	1	9	n/a	40972.95569	n/a
40973.95583	1.60025857	2	139	1	7	8	19	1	9	n/a	40974.55595	n/a
40975.55609	1.60028401	2	140	1	7	8	20	1	9	n/a	40976.1562	n/a
40977.15638	1.600276314	2	141	1	7	8	21	2	9	n/a	40977.75653	n/a
40978.75665	1.600245054	2	142	1	7	8	22	2	9	n/a	40979.35675	n/a
40980.3569	1.60010753	2	143	1	7	8	23	1	9	n/a	40980.95699	n/a
40981.95701	1.60022682	2	144	1	7	8	24	2	9	n/a	40982.55709	n/a
40983.55723	1.600241386	2	145	1	9	9	1	3	n/a	n/a	n/a	n/a
40985.15747	1.600251545	2	146	1	9	9	2	3	n/a	n/a	n/a	n/a
40986.75773	1.600235922	2	147	1	9	9	3	3	n/a	n/a	n/a	n/a
40988.35796	1.600245959	2	148	1	9	9	4	3	n/a	n/a	n/a	n/a
40989.95821	1.6002385	2	149	1	9	9	5	3	n/a	n/a	n/a	n/a
40991.55845	1.600236153	2	150	1	9	9	6	3	n/a	n/a	n/a	n/a
40993.15868	1.600241218	2	151	1	9	9	7	3	n/a	n/a	n/a	n/a
40994.75892	1.600259136	2	152	1	9	9	8	3	n/a	n/a	n/a	n/a
40996.35918	1.60028131	2	153	1	9	9	9	3	n/a	n/a	n/a	n/a
40997.95946	1.600282608	2	154	1	9	9	10	3	n/a	n/a	n/a	n/a
40999.55975	1.60009971	2	155	1	9	9	11	3	n/a	n/a	n/a	n/a
41001.15985	1.6002338	2	156	1	9	9	12	3	n/a	n/a	n/a	n/a
