onset	duration	run_number	trial_number	att_task	bar_direction	bar_period	bar_step	stim_noise_ori	stim_stair_val	response_val	probe_time	reaction_time
26097.19253	1.5988267	1	1	1	9	1	1	3	n/a	n/a	n/a	n/a
26098.79136	1.5994797	1	2	1	9	1	2	3	n/a	n/a	n/a	n/a
26100.39084	1.5926111	1	3	1	9	1	3	3	n/a	n/a	n/a	n/a
26101.98345	1.5942731	1	4	1	9	1	4	3	n/a	n/a	n/a	n/a
26103.57772	1.5936072	1	5	1	9	1	5	3	n/a	n/a	n/a	n/a
26105.17133	1.5910197	1	6	1	9	1	6	3	n/a	n/a	n/a	n/a
26106.76235	1.595131	1	7	1	9	1	7	3	n/a	n/a	n/a	n/a
26108.35748	1.5927808	1	8	1	9	1	8	3	n/a	n/a	n/a	n/a
26109.95026	1.5954221	1	9	1	9	1	9	3	n/a	n/a	n/a	n/a
26111.54568	1.5955239	1	10	1	9	1	10	3	n/a	n/a	n/a	n/a
26113.14121	1.5960228	1	11	1	9	1	11	3	n/a	n/a	n/a	n/a
26114.73723	1.5949941	1	12	1	9	1	12	3	n/a	n/a	n/a	n/a
26116.33222	1.5937296	1	13	1	1	2	1	2	9	n/a	26116.92854	n/a
26117.92595	1.5885972	1	14	1	1	2	2	2	9	n/a	26118.52122	n/a
26119.51455	1.5887949	1	15	1	1	2	3	2	9	n/a	26120.10941	n/a
26121.10335	1.5872479	1	16	1	1	2	4	2	9	n/a	26121.69951	n/a
26122.69059	1.5834017	1	17	1	1	2	5	2	9	n/a	26123.28503	n/a
26124.274	1.5863238	1	18	1	1	2	6	1	9	n/a	26124.86979	n/a
26125.86032	1.5889263	1	19	1	1	2	7	2	9	n/a	26126.45651	n/a
26127.44925	1.5874531	1	20	1	1	2	8	1	9	n/a	26128.04376	n/a
26129.0367	1.5891771	1	21	1	1	2	9	1	9	n/a	26129.63288	n/a
26130.62588	1.5884414	1	22	1	1	2	10	1	9	n/a	26131.2218	n/a
26132.21432	1.5888828	1	23	1	1	2	11	2	9	n/a	26132.80999	n/a
26133.8032	1.5879401	1	24	1	1	2	12	1	9	n/a	26134.39953	n/a
26135.39114	1.5917837	1	25	1	1	2	13	2	9	n/a	26135.99003	n/a
26136.98292	1.5891543	1	26	1	1	2	14	1	9	n/a	26137.57881	n/a
26138.57208	1.5901346	1	27	1	1	2	15	2	9	n/a	26139.16822	n/a
26140.16221	1.5889157	1	28	1	1	2	16	1	9	n/a	26140.75784	n/a
26141.75113	1.5886869	1	29	1	1	2	17	2	9	n/a	26142.34651	n/a
26143.33982	1.5896936	1	30	1	1	2	18	2	9	n/a	26143.93561	n/a
26144.92951	1.5960018	1	31	1	1	2	19	1	9	n/a	26145.526	n/a
26146.52551	1.5996148	1	32	1	1	2	20	2	9	n/a	26147.12545	n/a
26148.12513	1.5982123	1	33	1	1	2	21	2	9	n/a	26148.72531	n/a
26149.72334	1.6011094	1	34	1	1	2	22	1	9	n/a	26150.32497	n/a
26151.32445	1.5996605	1	35	1	1	2	23	2	9	n/a	26151.92377	n/a
26152.92411	1.6001055	1	36	1	1	2	24	1	9	n/a	26153.52486	n/a
26154.52421	1.5975925	1	37	1	9	3	1	3	n/a	n/a	n/a	n/a
26156.12181	1.5925988	1	38	1	9	3	2	3	n/a	n/a	n/a	n/a
26157.7144	1.5855212	1	39	1	9	3	3	3	n/a	n/a	n/a	n/a
26159.29993	1.5874817	1	40	1	9	3	4	3	n/a	n/a	n/a	n/a
26160.88741	1.5870612	1	41	1	9	3	5	3	n/a	n/a	n/a	n/a
26162.47447	1.5882845	1	42	1	9	3	6	3	n/a	n/a	n/a	n/a
26164.06275	1.5892291	1	43	1	9	3	7	3	n/a	n/a	n/a	n/a
26165.65198	1.5881352	1	44	1	9	3	8	3	n/a	n/a	n/a	n/a
26167.24012	1.5897517	1	45	1	9	3	9	3	n/a	n/a	n/a	n/a
26168.82987	1.5890743	1	46	1	9	3	10	3	n/a	n/a	n/a	n/a
26170.41894	1.586412	1	47	1	9	3	11	3	n/a	n/a	n/a	n/a
26172.00536	1.5882016	1	48	1	9	3	12	3	n/a	n/a	n/a	n/a
26173.59356	1.5874282	1	49	1	3	4	1	1	9	n/a	26174.18836	n/a
26175.18099	1.5892972	1	50	1	3	4	2	2	9	n/a	26175.77713	n/a
26176.77028	1.58813	1	51	1	3	4	3	1	9	n/a	26177.36625	n/a
26178.35841	1.5892643	1	52	1	3	4	4	1	9	n/a	26178.95476	n/a
26179.94768	1.5880611	1	53	1	3	4	5	2	9	n/a	26180.54329	n/a
26181.53574	1.5891554	1	54	1	3	4	6	2	9	n/a	26182.13213	n/a
26183.12489	1.5896569	1	55	1	3	4	7	2	9	n/a	26183.72103	n/a
26184.71455	1.5890934	1	56	1	3	4	8	2	9	n/a	26185.31014	n/a
26186.30364	1.5897476	1	57	1	3	4	9	2	9	n/a	26186.89973	n/a
26187.89339	1.5893933	1	58	1	3	4	10	1	9	n/a	26188.48914	n/a
26189.48278	1.58657	1	59	1	3	4	11	1	9	n/a	26190.07747	n/a
26191.06935	1.5938549	1	60	1	3	4	12	1	9	n/a	26191.66626	n/a
26192.66321	1.5951866	1	61	1	3	4	13	2	9	n/a	26193.25995	n/a
26194.2584	1.5943343	1	62	1	3	4	14	1	9	n/a	26194.85655	n/a
26195.85273	1.5963237	1	63	1	3	4	15	1	9	n/a	26196.45195	n/a
26197.44905	1.5957313	1	64	1	3	4	16	2	9	n/a	26198.04654	n/a
26199.04479	1.5950911	1	65	1	3	4	17	1	9	n/a	26199.64187	n/a
26200.63988	1.5892191	1	66	1	3	4	18	1	9	n/a	26201.23731	n/a
26202.2291	1.5887142	1	67	1	3	4	19	1	9	n/a	26202.82436	n/a
26203.81781	1.5893021	1	68	1	3	4	20	1	9	n/a	26204.41379	n/a
26205.40711	1.5905507	1	69	1	3	4	21	2	9	n/a	26206.00458	n/a
26206.99766	1.5890898	1	70	1	3	4	22	1	9	n/a	26207.59373	n/a
26208.58675	1.5889324	1	71	1	3	4	23	2	9	n/a	26209.18313	n/a
26210.17568	1.5899449	1	72	1	3	4	24	1	9	n/a	26210.77202	n/a
26211.76563	1.5884087	1	73	1	9	5	1	3	n/a	n/a	n/a	n/a
26213.35404	1.5895023	1	74	1	9	5	2	3	n/a	n/a	n/a	n/a
26214.94354	1.5894396	1	75	1	9	5	3	3	n/a	n/a	n/a	n/a
26216.53298	1.5902422	1	76	1	9	5	4	3	n/a	n/a	n/a	n/a
26218.12322	1.5893946	1	77	1	9	5	5	3	n/a	n/a	n/a	n/a
26219.71262	1.5885236	1	78	1	9	5	6	3	n/a	n/a	n/a	n/a
26221.30114	1.5974017	1	79	1	9	5	7	3	n/a	n/a	n/a	n/a
26222.89854	1.5938229	1	80	1	9	5	8	3	n/a	n/a	n/a	n/a
26224.49236	1.5895679	1	81	1	9	5	9	3	n/a	n/a	n/a	n/a
26226.08193	1.5885679	1	82	1	9	5	10	3	n/a	n/a	n/a	n/a
26227.6705	1.5889896	1	83	1	9	5	11	3	n/a	n/a	n/a	n/a
26229.25949	1.5892597	1	84	1	9	5	12	3	n/a	n/a	n/a	n/a
26230.84875	1.5897363	1	85	1	5	6	1	1	9	n/a	26231.4448	n/a
26232.43849	1.5893017	1	86	1	5	6	2	2	9	n/a	26233.0346	n/a
26234.02779	1.5888837	1	87	1	5	6	3	1	9	n/a	26234.6236	n/a
26235.61667	1.5921165	1	88	1	5	6	4	1	9	n/a	26236.21591	n/a
26237.20879	1.5904679	1	89	1	5	6	5	2	9	n/a	26237.80543	n/a
26238.79926	1.5931918	1	90	1	5	6	6	1	9	n/a	26239.39531	n/a
26240.39245	1.6002433	1	91	1	5	6	7	2	9	n/a	26240.99286	n/a
26241.99269	1.5997781	1	92	1	5	6	8	1	9	n/a	26242.59279	n/a
26243.59247	1.5886243	1	93	1	5	6	9	2	9	n/a	26244.18917	n/a
26245.18109	1.5890072	1	94	1	5	6	10	2	9	n/a	26245.7771	n/a
26246.7701	1.5898217	1	95	1	5	6	11	2	9	n/a	26247.36584	n/a
26248.35992	1.5896253	1	96	1	5	6	12	2	9	n/a	26248.95592	n/a
26249.94955	1.5892225	1	97	1	5	6	13	2	9	n/a	26250.54676	n/a
26251.53877	1.5877196	1	98	1	5	6	14	1	9	n/a	26252.13469	n/a
26253.12649	1.5896136	1	99	1	5	6	15	1	9	n/a	26253.72264	n/a
26254.7161	1.5869543	1	100	1	5	6	16	2	9	n/a	26255.30986	n/a
26256.30306	1.5875476	1	101	1	5	6	17	1	9	n/a	26256.89764	n/a
26257.89061	1.5962668	1	102	1	5	6	18	2	9	n/a	26258.4863	n/a
26259.48687	1.5988764	1	103	1	5	6	19	2	9	n/a	26260.08659	n/a
26261.08575	1.5953254	1	104	1	5	6	20	2	9	n/a	26261.68566	n/a
26262.68107	1.5883209	1	105	1	5	6	21	1	9	n/a	26263.27679	n/a
26264.26939	1.5874309	1	106	1	5	6	22	2	9	n/a	26264.86477	n/a
26265.85683	1.5904887	1	107	1	5	6	23	1	9	n/a	26266.45366	n/a
26267.44731	1.5883556	1	108	1	5	6	24	2	9	n/a	26268.04353	n/a
26269.03567	1.5891662	1	109	1	9	7	1	3	n/a	n/a	n/a	n/a
26270.62484	1.5889339	1	110	1	9	7	2	3	n/a	n/a	n/a	n/a
26272.21377	1.5894865	1	111	1	9	7	3	3	n/a	n/a	n/a	n/a
26273.80326	1.5880913	1	112	1	9	7	4	3	n/a	n/a	n/a	n/a
26275.39135	1.5896162	1	113	1	9	7	5	3	n/a	n/a	n/a	n/a
26276.98096	1.5991052	1	114	1	9	7	6	3	n/a	n/a	n/a	n/a
26278.58007	1.5997418	1	115	1	9	7	7	3	n/a	n/a	n/a	n/a
26280.17981	1.5933707	1	116	1	9	7	8	3	n/a	n/a	n/a	n/a
26281.77318	1.5872994	1	117	1	9	7	9	3	n/a	n/a	n/a	n/a
26283.36048	1.5881485	1	118	1	9	7	10	3	n/a	n/a	n/a	n/a
26284.94863	1.5877169	1	119	1	9	7	11	3	n/a	n/a	n/a	n/a
26286.53635	1.5905973	1	120	1	9	7	12	3	n/a	n/a	n/a	n/a
26288.12694	1.5948325	1	121	1	7	8	1	1	9	n/a	26288.7254	n/a
26289.72178	1.5940865	1	122	1	7	8	2	1	9	n/a	26290.31863	n/a
26291.31586	1.593316	1	123	1	7	8	3	2	9	n/a	26291.91409	n/a
26292.90918	1.5954265	1	124	1	7	8	4	2	9	n/a	26293.50771	n/a
26294.50461	1.5935491	1	125	1	7	8	5	2	9	n/a	26295.10239	n/a
26296.09815	1.5883486	1	126	1	7	8	6	2	9	n/a	26296.69427	n/a
26297.6865	1.5972131	1	127	1	7	8	7	2	9	n/a	26298.28449	n/a
26299.28372	1.5957665	1	128	1	7	8	8	2	9	n/a	26299.88233	n/a
26300.87948	1.5941868	1	129	1	7	8	9	1	9	n/a	26301.47789	n/a
26302.47367	1.5925785	1	130	1	7	8	10	2	9	n/a	26303.07294	n/a
26304.06625	1.5927649	1	131	1	7	8	11	2	9	n/a	26304.66422	n/a
26305.65901	1.5907794	1	132	1	7	8	12	2	9	n/a	26306.25561	n/a
26307.24979	1.5895581	1	133	1	7	8	13	2	9	n/a	26307.84578	n/a
26308.83935	1.5893285	1	134	1	7	8	14	1	9	n/a	26309.43558	n/a
26310.42868	1.5901998	1	135	1	7	8	15	1	9	n/a	26311.0248	n/a
26312.01888	1.5890396	1	136	1	7	8	16	2	9	n/a	26312.61423	n/a
26313.60792	1.5892359	1	137	1	7	8	17	1	9	n/a	26314.20373	n/a
26315.19715	1.5889678	1	138	1	7	8	18	1	9	n/a	26315.79344	n/a
26316.78612	1.5885344	1	139	1	7	8	19	1	9	n/a	26317.38155	n/a
26318.37466	1.5918196	1	140	1	7	8	20	2	9	n/a	26318.97077	n/a
26319.96648	1.5980289	1	141	1	7	8	21	2	9	n/a	26320.56573	n/a
26321.56451	1.5935703	1	142	1	7	8	22	1	9	n/a	26322.16471	n/a
26323.15808	1.5864684	1	143	1	7	8	23	1	9	n/a	26323.75277	n/a
26324.74454	1.5889275	1	144	1	7	8	24	1	9	n/a	26325.3407	n/a
26326.33347	1.5893452	1	145	1	9	9	1	3	n/a	n/a	n/a	n/a
26327.92282	1.5892197	1	146	1	9	9	2	3	n/a	n/a	n/a	n/a
26329.51204	1.5895997	1	147	1	9	9	3	3	n/a	n/a	n/a	n/a
26331.10164	1.5884095	1	148	1	9	9	4	3	n/a	n/a	n/a	n/a
26332.69005	1.5890807	1	149	1	9	9	5	3	n/a	n/a	n/a	n/a
26334.27913	1.5894954	1	150	1	9	9	6	3	n/a	n/a	n/a	n/a
26335.86862	1.5880649	1	151	1	9	9	7	3	n/a	n/a	n/a	n/a
26337.45669	1.5876331	1	152	1	9	9	8	3	n/a	n/a	n/a	n/a
26339.04432	1.5864541	1	153	1	9	9	9	3	n/a	n/a	n/a	n/a
26340.63077	1.5855302	1	154	1	9	9	10	3	n/a	n/a	n/a	n/a
26342.2163	1.5898145	1	155	1	9	9	11	3	n/a	n/a	n/a	n/a
26343.80612	1.5881863	1	156	1	9	9	12	3	n/a	n/a	n/a	n/a
