onset	duration	run_number	trial_number	att_task	bar_direction	bar_period	bar_step	stim_noise_ori	stim_stair_val	response_val	probe_time	reaction_time
507168.1524	1.5647946	1	1	1	9	1	1	3	n/a	n/a	n/a	n/a
507169.7172	1.6106737	1	2	1	9	1	2	3	n/a	n/a	n/a	n/a
507171.3279	1.5652742	1	3	1	9	1	3	3	n/a	n/a	n/a	n/a
507172.8932	1.5650933	1	4	1	9	1	4	3	n/a	n/a	n/a	n/a
507174.4583	1.5650308	1	5	1	9	1	5	3	n/a	n/a	n/a	n/a
507176.0233	1.56484	1	6	1	9	1	6	3	n/a	n/a	n/a	n/a
507177.5881	1.564891	1	7	1	9	1	7	3	n/a	n/a	n/a	n/a
507179.153	1.5645767	1	8	1	9	1	8	3	n/a	n/a	n/a	n/a
507180.7176	1.5649765	1	9	1	9	1	9	3	n/a	n/a	n/a	n/a
507182.2826	1.5649241	1	10	1	9	1	10	3	n/a	n/a	n/a	n/a
507183.8475	1.5645999	1	11	1	9	1	11	3	n/a	n/a	n/a	n/a
507185.4121	1.5646885	1	12	1	9	1	12	3	n/a	n/a	n/a	n/a
507186.9768	1.5668791	1	13	1	1	2	1	2	9	1	507187.5639	0.6995843
507188.5437	1.5644352	1	14	1	1	2	2	1	9	1	507189.1301	0.4048960001
507190.1081	1.564848	1	15	1	1	2	3	2	9	1	507190.6947	0.4073844
507191.673	1.5658588	1	16	1	1	2	4	1	8	1	507192.2599	0.4072118
507193.2388	1.5651629	1	17	1	1	2	5	1	8	1	507193.8259	0.5072496
507194.804	1.5659852	1	18	1	1	2	6	1	8	1	507195.3915	0.7014914
507196.37	1.5653298	1	19	1	1	2	7	1	7	1	507196.9568	0.6181653
507197.9353	1.566017	1	20	1	1	2	8	2	7	1	507198.5224	0.6030009
507199.5013	1.5658894	1	21	1	1	2	9	2	7	1	507200.0882	0.6137378
507201.0672	1.5661606	1	22	1	1	2	10	1	6	1	507201.6545	0.5055439
507202.6334	1.56594	1	23	1	1	2	11	2	6	0	507203.2207	0.6028602
507204.1993	1.5663899	1	24	1	1	2	12	1	7	1	507204.7865	0.6025615
507205.7657	1.5654799	1	25	1	1	2	13	2	7	1	507206.3528	0.50802
507207.3312	1.5648761	1	26	1	1	2	14	1	7	1	507207.9179	0.5048204
507208.8961	1.5652797	1	27	1	1	2	15	1	6	0	507209.483	0.5043268
507210.4613	1.5657347	1	28	1	1	2	16	1	7	1	507211.0485	0.6029318
507212.0271	1.5647421	1	29	1	1	2	17	2	7	1	507212.6138	0.5151059
507213.5918	1.565641	1	30	1	1	2	18	1	7	1	507214.179	0.5058487
507215.1575	1.5654291	1	31	1	1	2	19	2	6	0	507215.7446	0.4078898
507216.7229	1.565078	1	32	1	1	2	20	1	7	1	507217.3099	0.6015287
507218.288	1.5649317	1	33	1	1	2	21	1	7	1	507218.8749	0.6008264
507219.8529	1.5655855	1	34	1	1	2	22	1	7	1	507220.4398	0.5035584
507221.4185	1.5649266	1	35	1	1	2	23	2	6	1	507222.0055	0.6006947
507222.9834	1.5650588	1	36	1	1	2	24	1	6	1	507223.5703	0.8075337
507224.5485	1.564783	1	37	1	9	3	1	3	n/a	n/a	n/a	n/a
507226.1132	1.5648977	1	38	1	9	3	2	3	n/a	n/a	n/a	n/a
507227.6781	1.5647017	1	39	1	9	3	3	3	n/a	n/a	n/a	n/a
507229.2428	1.5648267	1	40	1	9	3	4	3	n/a	n/a	n/a	n/a
507230.8077	1.5648138	1	41	1	9	3	5	3	n/a	n/a	n/a	n/a
507232.3725	1.5651809	1	42	1	9	3	6	3	n/a	n/a	n/a	n/a
507233.9377	1.5650605	1	43	1	9	3	7	3	n/a	n/a	n/a	n/a
507235.5027	1.5651965	1	44	1	9	3	8	3	n/a	n/a	n/a	n/a
507237.0679	1.5649251	1	45	1	9	3	9	3	n/a	n/a	n/a	n/a
507238.6328	1.5652943	1	46	1	9	3	10	3	n/a	n/a	n/a	n/a
507240.1981	1.564892	1	47	1	9	3	11	3	n/a	n/a	n/a	n/a
507241.763	1.5645946	1	48	1	9	3	12	3	n/a	n/a	n/a	n/a
507243.3276	1.5646574	1	49	1	3	4	1	2	6	n/a	507243.9143	n/a
507244.8923	1.5655222	1	50	1	3	4	2	1	6	1	507245.4795	0.6007879
507246.4578	1.5657357	1	51	1	3	4	3	2	5	1	507247.0448	0.5039381
507248.0235	1.5651841	1	52	1	3	4	4	2	5	1	507248.6105	0.7978299
507249.5887	1.5664537	1	53	1	3	4	5	2	5	1	507250.1759	0.7000155
507251.1552	1.5731806	1	54	1	3	4	6	1	4	1	507251.7453	0.8909237
507252.7284	1.5682838	1	55	1	3	4	7	2	4	n/a	507253.3157	n/a
507254.2966	1.5670807	1	56	1	3	4	8	1	4	n/a	507254.8844	n/a
507255.8637	1.5695661	1	57	1	3	4	9	1	4	n/a	507256.4518	n/a
507257.4333	1.5678718	1	58	1	3	4	10	1	4	n/a	507258.0219	n/a
507259.0012	1.5699213	1	59	1	3	4	11	1	4	1	507259.59	0.8018454
507260.5711	1.5683899	1	60	1	3	4	12	2	4	1	507261.1594	0.7039353
507262.1395	1.565421	1	61	1	3	4	13	1	3	0	507262.7266	0.7003652
507263.7049	1.5662807	1	62	1	3	4	14	2	4	1	507264.2921	0.7110788
507265.2712	1.5663217	1	63	1	3	4	15	1	4	1	507265.8584	0.6037303
507266.8375	1.5660777	1	64	1	3	4	16	1	4	1	507267.4247	0.7021211
507268.4036	1.5660221	1	65	1	3	4	17	1	3	1	507268.9911	0.7001236
507269.9696	1.565892	1	66	1	3	4	18	2	3	1	507270.5568	0.7983446
507271.5355	1.5663071	1	67	1	3	4	19	2	3	n/a	507272.1233	n/a
507273.1018	1.5686246	1	68	1	3	4	20	1	3	n/a	507273.6892	n/a
507274.6704	1.5660035	1	69	1	3	4	21	1	3	n/a	507275.2577	n/a
507276.2364	1.5666478	1	70	1	3	4	22	1	3	1	507276.8242	-0.08185469999
507277.8031	1.5664832	1	71	1	3	4	23	1	2	0	507278.391	-0.08136179997
507279.3696	1.5672606	1	72	1	3	4	24	1	3	1	507279.9573	0.01529820001
507280.9368	1.5662597	1	73	1	9	5	1	3	n/a	n/a	n/a	n/a
507282.5031	1.566058	1	74	1	9	5	2	3	n/a	n/a	n/a	n/a
507284.0691	1.5659073	1	75	1	9	5	3	3	n/a	n/a	n/a	n/a
507285.635	1.565305	1	76	1	9	5	4	3	n/a	n/a	n/a	n/a
507287.2003	1.5658769	1	77	1	9	5	5	3	n/a	n/a	n/a	n/a
507288.7662	1.5655574	1	78	1	9	5	6	3	n/a	n/a	n/a	n/a
507290.3318	1.5664501	1	79	1	9	5	7	3	n/a	n/a	n/a	n/a
507291.8982	1.565598	1	80	1	9	5	8	3	n/a	n/a	n/a	n/a
507293.4638	1.5657409	1	81	1	9	5	9	3	n/a	n/a	n/a	n/a
507295.0296	1.5653561	1	82	1	9	5	10	3	n/a	n/a	n/a	n/a
507296.5949	1.5656559	1	83	1	9	5	11	3	n/a	n/a	n/a	n/a
507298.1606	1.5658784	1	84	1	9	5	12	3	n/a	n/a	n/a	n/a
507299.7265	1.5661094	1	85	1	5	6	1	2	3	n/a	507300.3134	n/a
507301.2926	1.5661609	1	86	1	5	6	2	2	3	1	507301.8796	0.6013714
507302.8587	1.5671861	1	87	1	5	6	3	1	3	1	507303.4463	0.7982061
507304.4259	1.5657833	1	88	1	5	6	4	1	2	1	507305.0132	0.6996277
507305.9917	1.5659548	1	89	1	5	6	5	2	2	0	507306.5789	0.8962549
507307.5577	1.5655399	1	90	1	5	6	6	1	3	0	507308.1447	0.7979997
507309.1232	1.5656232	1	91	1	5	6	7	2	4	0	507309.7103	0.6997966
507310.6888	1.5657132	1	92	1	5	6	8	1	5	1	507311.276	0.798587
507312.2545	1.5702569	1	93	1	5	6	9	1	5	1	507312.8431	0.5060631
507313.8248	1.5707299	1	94	1	5	6	10	1	5	1	507314.4138	0.5057215
507315.3955	1.5666935	1	95	1	5	6	11	1	4	1	507315.9829	0.5052758
507316.9622	1.5662651	1	96	1	5	6	12	2	4	1	507317.5493	0.5046025
507318.5285	1.5666511	1	97	1	5	6	13	1	4	1	507319.1162	0.8964083
507320.0951	1.5653466	1	98	1	5	6	14	2	3	1	507320.6823	0.6998642
507321.6605	1.5661387	1	99	1	5	6	15	2	3	1	507322.2475	0.7986221
507323.2266	1.5665476	1	100	1	5	6	16	2	3	1	507323.8138	0.7007902
507324.7932	1.5658076	1	101	1	5	6	17	1	2	1	507325.3806	0.5048571
507326.359	1.5663297	1	102	1	5	6	18	1	2	1	507326.946	0.6030025
507327.9253	1.5657612	1	103	1	5	6	19	1	2	0	507328.5123	0.6039119
507329.4911	1.5660199	1	104	1	5	6	20	2	3	0	507330.0784	0.5054774
507331.0571	1.5661985	1	105	1	5	6	21	2	4	1	507331.6444	0.4069356
507332.6233	1.5660345	1	106	1	5	6	22	1	4	1	507333.2108	0.5040516
507334.1893	1.5660435	1	107	1	5	6	23	1	4	1	507334.7769	0.5039827
507335.7554	1.5661458	1	108	1	5	6	24	1	3	1	507336.3426	0.5034091
507337.3215	1.5658724	1	109	1	9	7	1	3	n/a	n/a	n/a	n/a
507338.8874	1.5660718	1	110	1	9	7	2	3	n/a	n/a	n/a	n/a
507340.4534	1.5660608	1	111	1	9	7	3	3	n/a	n/a	n/a	n/a
507342.0195	1.5651862	1	112	1	9	7	4	3	n/a	n/a	n/a	n/a
507343.5847	1.566378	1	113	1	9	7	5	3	n/a	n/a	n/a	n/a
507345.1511	1.5656524	1	114	1	9	7	6	3	n/a	n/a	n/a	n/a
507346.7167	1.5654233	1	115	1	9	7	7	3	n/a	n/a	n/a	n/a
507348.2821	1.5653805	1	116	1	9	7	8	3	n/a	n/a	n/a	n/a
507349.8475	1.5662071	1	117	1	9	7	9	3	n/a	n/a	n/a	n/a
507351.4137	1.5656494	1	118	1	9	7	10	3	n/a	n/a	n/a	n/a
507352.9794	1.5657356	1	119	1	9	7	11	3	n/a	n/a	n/a	n/a
507354.5451	1.5657577	1	120	1	9	7	12	3	n/a	n/a	n/a	n/a
507356.1109	1.5657095	1	121	1	7	8	1	1	3	0	507356.6979	0.6992114
507357.6766	1.5660422	1	122	1	7	8	2	2	4	1	507358.2641	0.797349
507359.2426	1.5666488	1	123	1	7	8	3	1	4	1	507359.8299	0.6026677
507360.8093	1.5655728	1	124	1	7	8	4	2	4	0	507361.3965	0.6999603
507362.3749	1.5665225	1	125	1	7	8	5	2	5	1	507362.962	0.8965395
507363.9414	1.5660492	1	126	1	7	8	6	1	5	1	507364.5287	0.6027358
507365.5074	1.5657294	1	127	1	7	8	7	1	5	1	507366.0946	0.5044241
507367.0732	1.5660599	1	128	1	7	8	8	1	4	1	507367.6608	0.5054135
507368.6392	1.5658096	1	129	1	7	8	9	2	4	0	507369.2263	0.505072
507370.205	1.5660945	1	130	1	7	8	10	2	5	1	507370.7919	0.6041493
507371.7711	1.56613	1	131	1	7	8	11	2	5	1	507372.3585	0.5062114
507373.3372	1.5663768	1	132	1	7	8	12	2	5	1	507373.9245	0.6033839
507374.9036	1.5714296	1	133	1	7	8	13	1	4	1	507375.4925	0.6060011
507376.4751	1.5689598	1	134	1	7	8	14	2	4	1	507377.0625	0.5061148
507378.044	1.5679289	1	135	1	7	8	15	1	4	1	507378.6333	0.6029243
507379.6119	1.5663668	1	136	1	7	8	16	1	3	0	507380.1991	0.4074804
507381.1783	1.5658544	1	137	1	7	8	17	2	4	0	507381.7655	0.3094598
507382.7442	1.5656759	1	138	1	7	8	18	1	5	1	507383.3312	0.5049735
507384.3098	1.5665526	1	139	1	7	8	19	2	5	1	507384.8969	0.4085758
507385.8764	1.5662498	1	140	1	7	8	20	2	5	1	507386.4639	0.7005017
507387.4426	1.5656379	1	141	1	7	8	21	2	4	0	507388.0296	0.8959953
507389.0083	1.5655676	1	142	1	7	8	22	2	5	n/a	507389.5954	n/a
507390.5738	1.5659976	1	143	1	7	8	23	2	5	n/a	507391.1612	n/a
507392.1398	1.5658325	1	144	1	7	8	24	1	5	1	507392.727	-0.08289219998
507393.7057	1.5659111	1	145	1	9	9	1	3	n/a	n/a	n/a	n/a
507395.2716	1.56632	1	146	1	9	9	2	3	n/a	n/a	n/a	n/a
507396.8379	1.5673694	1	147	1	9	9	3	3	n/a	n/a	n/a	n/a
507398.4053	1.5664277	1	148	1	9	9	4	3	n/a	n/a	n/a	n/a
507399.9717	1.5668395	1	149	1	9	9	5	3	n/a	n/a	n/a	n/a
507401.5385	1.5665279	1	150	1	9	9	6	3	n/a	n/a	n/a	n/a
507403.1051	1.5665191	1	151	1	9	9	7	3	n/a	n/a	n/a	n/a
507404.6716	1.5658815	1	152	1	9	9	8	3	n/a	n/a	n/a	n/a
507406.2375	1.5664249	1	153	1	9	9	9	3	n/a	n/a	n/a	n/a
507407.8039	1.5656462	1	154	1	9	9	10	3	n/a	n/a	n/a	n/a
507409.3695	1.5662833	1	155	1	9	9	11	3	n/a	n/a	n/a	n/a
507410.9358	1.5658098	1	156	1	9	9	12	3	n/a	n/a	n/a	n/a
