onset	duration	run_number	trial_number	att_task	bar_direction	bar_period	bar_step	stim_noise_ori	stim_stair_val	response_val	probe_time	reaction_time
30704.52402	3.1982171	1	1	1	9	1	1	3	n/a	n/a	n/a	n/a
30707.72224	2.8163295	1	2	1	9	1	2	3	n/a	n/a	n/a	n/a
30710.53857	2.8911348	1	3	1	9	1	3	3	n/a	n/a	n/a	n/a
30713.4297	2.6913201	1	4	1	9	1	4	3	n/a	n/a	n/a	n/a
30716.12102	2.6496114	1	5	1	9	1	5	3	n/a	n/a	n/a	n/a
30718.77064	2.7162909	1	6	1	9	1	6	3	n/a	n/a	n/a	n/a
30721.48693	2.7246205	1	7	1	9	1	7	3	n/a	n/a	n/a	n/a
30724.21155	2.6662545	1	8	1	9	1	8	3	n/a	n/a	n/a	n/a
30726.8778	2.849634	1	9	1	9	1	9	3	n/a	n/a	n/a	n/a
30729.72744	2.7912202	1	10	1	9	1	10	3	n/a	n/a	n/a	n/a
30732.51866	2.7913008	1	11	1	9	1	11	3	n/a	n/a	n/a	n/a
30735.30996	2.9745768	1	12	1	9	1	12	3	n/a	n/a	n/a	n/a
30738.28453	2.8662467	1	13	1	1	2	1	1	15	n/a	30739.40937	n/a
30741.15078	2.7246132	1	14	1	1	2	2	2	15	n/a	30742.17565	n/a
30743.87539	2.7996029	1	15	1	1	2	3	1	15	n/a	30744.97524	n/a
30746.675	2.9163145	1	16	1	1	2	4	2	15	n/a	30747.74984	n/a
30749.59131	2.8162006	1	17	1	1	2	5	1	15	n/a	30750.63278	n/a
30752.40751	2.8829973	1	18	1	1	2	6	1	15	n/a	30753.50735	n/a
30755.29051	3.0161653	1	19	1	1	2	7	1	15	n/a	30756.44859	n/a
30758.30667	2.9079237	1	20	1	1	2	8	1	15	n/a	30759.44819	n/a
30761.2146	2.9245701	1	21	1	1	2	9	2	15	n/a	30762.35624	n/a
30764.13917	2.8329324	1	22	1	1	2	10	2	15	n/a	30765.18069	n/a
30766.9721	3.0162372	1	23	1	1	2	11	1	15	n/a	30768.14692	n/a
30769.98834	2.8995979	1	24	1	1	2	12	2	15	n/a	30771.0715	n/a
30772.88794	2.9245615	1	25	1	1	2	13	2	15	n/a	30773.95443	n/a
30775.8125	2.8663106	1	26	1	1	2	14	2	15	n/a	30776.91234	n/a
30778.67881	2.8828774	1	27	1	1	2	15	2	15	n/a	30779.80357	n/a
30781.56169	2.782932	1	28	1	1	2	16	1	15	n/a	30782.61151	n/a
30784.34462	2.8162658	1	29	1	1	2	17	2	15	n/a	30785.44446	n/a
30787.16088	2.8329614	1	30	1	1	2	18	2	15	n/a	30788.26901	n/a
30789.99384	2.7828755	1	31	1	1	2	19	2	15	n/a	30791.01861	n/a
30792.77672	2.8162396	1	32	1	1	2	20	2	15	n/a	30793.78487	n/a
30795.59296	2.7246515	1	33	1	1	2	21	2	15	n/a	30796.65118	n/a
30798.31761	2.7579326	1	34	1	1	2	22	1	15	n/a	30799.35079	n/a
30801.07554	2.7912579	1	35	1	1	2	23	1	15	n/a	30802.08384	n/a
30803.8668	2.7079528	1	36	1	1	2	24	2	15	n/a	30804.90001	n/a
30806.57475	2.6497439	1	37	1	9	3	1	3	n/a	n/a	n/a	n/a
30809.2245	2.6994625	1	38	1	9	3	2	3	n/a	n/a	n/a	n/a
30811.92396	2.6662882	1	39	1	9	3	3	3	n/a	n/a	n/a	n/a
30814.59025	2.8496243	1	40	1	9	3	4	3	n/a	n/a	n/a	n/a
30817.43987	2.874591	1	41	1	9	3	5	3	n/a	n/a	n/a	n/a
30820.31446	2.907882	1	42	1	9	3	6	3	n/a	n/a	n/a	n/a
30823.22235	2.7663816	1	43	1	9	3	7	3	n/a	n/a	n/a	n/a
30825.98873	3.0161532	1	44	1	9	3	8	3	n/a	n/a	n/a	n/a
30829.00488	2.9078857	1	45	1	9	3	9	3	n/a	n/a	n/a	n/a
30831.91277	2.8746928	1	46	1	9	3	10	3	n/a	n/a	n/a	n/a
30834.78746	2.9745085	1	47	1	9	3	11	3	n/a	n/a	n/a	n/a
30837.76197	2.8912187	1	48	1	9	3	12	3	n/a	n/a	n/a	n/a
30840.65319	2.6829141	1	49	1	3	4	1	2	15	n/a	30841.6948	n/a
30843.3361	2.6163245	1	50	1	3	4	2	1	15	n/a	30844.31934	n/a
30845.95243	2.7912948	1	51	1	3	4	3	1	15	n/a	30846.99394	n/a
30848.74372	2.9495207	1	52	1	3	4	4	2	15	n/a	30849.80189	n/a
30851.69324	2.9079395	1	53	1	3	4	5	1	15	n/a	30852.82645	n/a
30854.60118	2.9412895	1	54	1	3	4	6	2	15	n/a	30855.69269	n/a
30857.54247	2.9579686	1	55	1	3	4	7	2	15	n/a	30858.64228	n/a
30860.50044	3.2495723	1	56	1	3	4	8	2	15	n/a	30861.6587	n/a
30863.75001	3.2410808	1	57	1	3	4	9	1	15	n/a	30864.94971	n/a
30866.99109	3.066410856	1	58	1	3	4	10	1	15	n/a	30868.14925	n/a
30870.0575	3.182684744	1	59	1	3	4	11	1	15	n/a	30871.23215	n/a
30873.24019	3.0162353	1	60	1	3	4	12	2	15	n/a	30874.39831	n/a
30876.25642	3.1412106	1	61	1	3	4	13	2	15	n/a	30877.41459	n/a
30879.39763	3.1578827	1	62	1	3	4	14	2	15	n/a	30880.62243	n/a
30882.55552	2.9995495	1	63	1	3	4	15	2	15	n/a	30883.65535	n/a
30885.55507	2.9162383	1	64	1	3	4	16	2	15	n/a	30886.63824	n/a
30888.4713	2.907924	1	65	1	3	4	17	1	15	n/a	30889.53795	n/a
30891.37923	2.8747028	1	66	1	3	4	18	1	15	n/a	30892.42906	n/a
30894.25393	3.1996338	1	67	1	3	4	19	2	15	n/a	30895.48698	n/a
30897.45356	3.1826654	1	68	1	3	4	20	2	15	n/a	30898.60325	n/a
30900.63623	3.1578976	1	69	1	3	4	21	2	15	n/a	30901.80285	n/a
30903.79413	2.8996158	1	70	1	3	4	22	1	15	n/a	30904.8773	n/a
30906.69374	2.9412056	1	71	1	3	4	23	1	15	n/a	30907.76022	n/a
30909.63495	2.9662676	1	72	1	3	4	24	1	15	n/a	30910.69321	n/a
30912.60122	2.8578789	1	73	1	9	5	1	3	n/a	n/a	n/a	n/a
30915.45909	2.833151078	1	74	1	9	5	2	3	n/a	n/a	n/a	n/a
30918.29225	2.9662412	1	75	1	9	5	3	3	n/a	n/a	n/a	n/a
30921.25849	2.807702922	1	76	1	9	5	4	3	n/a	n/a	n/a	n/a
30924.06619	2.7496318	1	77	1	9	5	5	3	n/a	n/a	n/a	n/a
30926.81582	2.7997901	1	78	1	9	5	6	3	n/a	n/a	n/a	n/a
30929.61561	2.8410684	1	79	1	9	5	7	3	n/a	n/a	n/a	n/a
30932.45668	2.7412404	1	80	1	9	5	8	3	n/a	n/a	n/a	n/a
30935.19792	3.0079377	1	81	1	9	5	9	3	n/a	n/a	n/a	n/a
30938.20586	3.0995037	1	82	1	9	5	10	3	n/a	n/a	n/a	n/a
30941.30536	2.8496205	1	83	1	9	5	11	3	n/a	n/a	n/a	n/a
30944.15498	2.8412491	1	84	1	9	5	12	3	n/a	n/a	n/a	n/a
30946.99623	2.7996034	1	85	1	5	6	1	2	15	n/a	30947.99609	n/a
30949.79584	2.9912511	1	86	1	5	6	2	1	15	n/a	30950.95407	n/a
30952.78709	2.9745864	1	87	1	5	6	3	2	15	n/a	30953.92028	n/a
30955.76167	3.0246399	1	88	1	5	6	4	1	15	n/a	30956.93649	n/a
30958.78631	3.0577811	1	89	1	5	6	5	2	15	n/a	30959.96939	n/a
30961.84409	2.9829441	1	90	1	5	6	6	2	15	n/a	30962.95243	n/a
30964.82704	3.016219	1	91	1	5	6	7	2	15	n/a	30965.94351	n/a
30967.84326	3.1413381	1	92	1	5	6	8	2	15	n/a	30969.00973	n/a
30970.98459	3.2661148	1	93	1	5	6	9	2	15	n/a	30972.24258	n/a
30974.25071	3.1994865	1	94	1	5	6	10	1	15	n/a	30975.34218	n/a
30977.4502	3.1245693	1	95	1	5	6	11	1	15	n/a	30978.69167	n/a
30980.57477	2.9245725	1	96	1	5	6	12	1	15	n/a	30981.6996	n/a
30983.49934	2.9912238	1	97	1	5	6	13	2	15	n/a	30984.63252	n/a
30986.49056	2.9662409	1	98	1	5	6	14	2	15	n/a	30987.59875	n/a
30989.4568	3.0578939	1	99	1	5	6	15	2	15	n/a	30990.6317	n/a
30992.5147	2.9162172	1	100	1	5	6	16	2	15	n/a	30993.6062	n/a
30995.43091	2.9080465	1	101	1	5	6	17	2	15	n/a	30996.48085	n/a
30998.33896	3.0746529	1	102	1	5	6	18	1	15	n/a	30999.4387	n/a
31001.41361	3.1159989	1	103	1	5	6	19	2	15	n/a	31002.61325	n/a
31004.52961	3.2830583	1	104	1	5	6	20	1	15	n/a	31005.63782	n/a
31007.81267	3.13272	1	105	1	5	6	21	1	15	n/a	31008.92899	n/a
31010.94539	3.357859	1	106	1	5	6	22	2	15	n/a	31012.25353	n/a
31014.30325	3.1746623	1	107	1	5	6	23	2	15	n/a	31015.53639	n/a
31017.47791	3.2577381	1	108	1	5	6	24	2	15	n/a	31018.72767	n/a
31020.73565	3.0079269	1	109	1	9	7	1	3	n/a	n/a	n/a	n/a
31023.74358	2.9996308	1	110	1	9	7	2	3	n/a	n/a	n/a	n/a
31026.74321	2.7411689	1	111	1	9	7	3	3	n/a	n/a	n/a	n/a
31029.48438	3.0162177	1	112	1	9	7	4	3	n/a	n/a	n/a	n/a
31032.50059	3.0662347	1	113	1	9	7	5	3	n/a	n/a	n/a	n/a
31035.56683	2.9579131	1	114	1	9	7	6	3	n/a	n/a	n/a	n/a
31038.52474	2.8413396	1	115	1	9	7	7	3	n/a	n/a	n/a	n/a
31041.36608	2.7328548	1	116	1	9	7	8	3	n/a	n/a	n/a	n/a
31044.09894	2.7913371	1	117	1	9	7	9	3	n/a	n/a	n/a	n/a
31046.89027	2.891195	1	118	1	9	7	10	3	n/a	n/a	n/a	n/a
31049.78147	2.7912717	1	119	1	9	7	11	3	n/a	n/a	n/a	n/a
31052.57274	2.7329342	1	120	1	9	7	12	3	n/a	n/a	n/a	n/a
31055.30567	2.7328806	1	121	1	7	8	1	2	15	n/a	31056.36384	n/a
31058.03855	2.7746772	1	122	1	7	8	2	2	15	n/a	31059.10513	n/a
31060.81323	2.7579171	1	123	1	7	8	3	2	15	n/a	31061.82974	n/a
31063.57115	2.7912857	1	124	1	7	8	4	2	15	n/a	31064.64599	n/a
31066.36243	2.9162269	1	125	1	7	8	5	2	15	n/a	31067.45393	n/a
31069.27866	2.9162515	1	126	1	7	8	6	2	15	n/a	31070.37018	n/a
31072.19491	2.8912386	1	127	1	7	8	7	2	15	n/a	31073.27807	n/a
31075.08615	2.8995788	1	128	1	7	8	8	2	15	n/a	31076.15278	n/a
31077.98573	3.0662766	1	129	1	7	8	9	1	15	n/a	31079.12726	n/a
31081.05201	2.9246161	1	130	1	7	8	10	1	15	n/a	31082.1518	n/a
31083.97662	2.8911872	1	131	1	7	8	11	2	15	n/a	31085.06804	n/a
31086.86781	3.1078829	1	132	1	7	8	12	2	15	n/a	31088.02597	n/a
31089.97569	2.8912243	1	133	1	7	8	13	2	15	n/a	31091.06719	n/a
31092.86692	2.9079189	1	134	1	7	8	14	1	15	n/a	31093.97508	n/a
31095.77484	2.8495878	1	135	1	7	8	15	1	15	n/a	31096.86634	n/a
31098.62442	2.8495923	1	136	1	7	8	16	2	15	n/a	31099.68261	n/a
31101.47402	3.2578607	1	137	1	7	8	17	1	15	n/a	31102.60718	n/a
31104.73188	3.1578784	1	138	1	7	8	18	1	15	n/a	31105.99839	n/a
31107.88976	3.2079066	1	139	1	7	8	19	2	15	n/a	31109.03128	n/a
31111.09766	2.9912668	1	140	1	7	8	20	2	15	n/a	31112.2059	n/a
31114.08893	3.132884	1	141	1	7	8	21	1	15	n/a	31115.28871	n/a
31117.22181	2.9745185	1	142	1	7	8	22	2	15	n/a	31118.32993	n/a
31120.19633	2.8412704	1	143	1	7	8	23	2	15	n/a	31121.23785	n/a
31123.0376	2.7996268	1	144	1	7	8	24	1	15	n/a	31124.12077	n/a
31125.83723	2.7662424	1	145	1	9	9	1	3	n/a	n/a	n/a	n/a
31128.60347	2.7079361	1	146	1	9	9	2	3	n/a	n/a	n/a	n/a
31131.31141	2.7662657	1	147	1	9	9	3	3	n/a	n/a	n/a	n/a
31134.07767	2.8329323	1	148	1	9	9	4	3	n/a	n/a	n/a	n/a
31136.91061	2.7995976	1	149	1	9	9	5	3	n/a	n/a	n/a	n/a
31139.7102	2.7245842	1	150	1	9	9	6	3	n/a	n/a	n/a	n/a
31142.43479	2.6996168	1	151	1	9	9	7	3	n/a	n/a	n/a	n/a
31145.1344	2.7412696	1	152	1	9	9	8	3	n/a	n/a	n/a	n/a
31147.87567	2.8413439	1	153	1	9	9	9	3	n/a	n/a	n/a	n/a
31150.71702	2.7995252	1	154	1	9	9	10	3	n/a	n/a	n/a	n/a
31153.51654	2.8829602	1	155	1	9	9	11	3	n/a	n/a	n/a	n/a
31156.3995	2.9328592	1	156	1	9	9	12	3	n/a	n/a	n/a	n/a
