onset	duration	run_number	trial_number	att_task	bar_direction	bar_period	bar_step	stim_noise_ori	stim_stair_val	response_val	probe_time	reaction_time
5939.785472	1.60187552	1	1	1	9	1	1	3	n/a	n/a	n/a	n/a
5941.387348	1.60011976	1	2	1	9	1	2	3	n/a	n/a	n/a	n/a
5942.987468	1.600248483	1	3	1	9	1	3	3	n/a	n/a	n/a	n/a
5944.587716	1.600250116	1	4	1	9	1	4	3	n/a	n/a	n/a	n/a
5946.187966	1.600226438	1	5	1	9	1	5	3	n/a	n/a	n/a	n/a
5947.788193	1.600289187	1	6	1	9	1	6	3	n/a	n/a	n/a	n/a
5949.388482	1.600295671	1	7	1	9	1	7	3	n/a	n/a	n/a	n/a
5950.988777	1.600236972	1	8	1	9	1	8	3	n/a	n/a	n/a	n/a
5952.589014	1.600097062	1	9	1	9	1	9	3	n/a	n/a	n/a	n/a
5954.189112	1.600245571	1	10	1	9	1	10	3	n/a	n/a	n/a	n/a
5955.789357	1.600244667	1	11	1	9	1	11	3	n/a	n/a	n/a	n/a
5957.389602	1.600249924	1	12	1	9	1	12	3	n/a	n/a	n/a	n/a
5958.989852	1.600241602	1	13	1	1	2	1	1	9	1	5959.589908	0.6053997815
5960.590093	1.600232928	1	14	1	1	2	2	2	9	n/a	5961.190181	n/a
5962.190326	1.600234	1	15	1	1	2	3	1	9	1	5962.790414	0.9053040613
5963.79056	1.600237272	1	16	1	1	2	4	2	9	n/a	5964.390655	n/a
5965.390797	1.600302158	1	17	1	1	2	5	1	9	n/a	5965.990896	n/a
5966.9911	1.600293512	1	18	1	1	2	6	2	9	n/a	5967.591124	n/a
5968.591393	1.600143273	1	19	1	1	2	7	2	9	n/a	5969.191367	n/a
5970.191536	1.600290381	1	20	1	1	2	8	2	9	n/a	5970.791737	n/a
5971.791827	1.600279205	1	21	1	1	2	9	1	9	n/a	5972.391925	n/a
5973.392106	1.600234318	1	22	1	1	2	10	1	9	1	5973.992195	0.4111180381
5974.99234	1.600125622	1	23	1	1	2	11	2	8	n/a	5975.592304	n/a
5976.592466	1.600227318	1	24	1	1	2	12	1	8	n/a	5977.192544	n/a
5978.192693	1.600246936	1	25	1	1	2	13	2	8	1	5978.792782	0.007249431207
5979.79294	1.600231358	1	26	1	1	2	14	1	8	1	5980.393026	0.2077163247
5981.393172	1.600241488	1	27	1	1	2	15	1	8	0	5981.993286	0.215038832
5982.993413	1.600250215	1	28	1	1	2	16	1	9	1	5983.593498	0.1058562605
5984.593663	1.60023417	1	29	1	1	2	17	2	9	1	5985.193743	0.01670777836
5986.193897	1.600237996	1	30	1	1	2	18	2	9	n/a	5986.79413	n/a
5987.794135	1.600225051	1	31	1	1	2	19	2	9	n/a	5988.394225	n/a
5989.39436	1.600237358	1	32	1	1	2	20	1	9	1	5989.994443	0.01253308641
5990.994598	1.600248924	1	33	1	1	2	21	1	8	0	5991.594693	0.612794232
5992.594847	1.600330776	1	34	1	1	2	22	1	9	1	5993.194924	0.2085884978
5994.195178	1.600129388	1	35	1	1	2	23	1	9	0	5994.795163	0.006689777574
5995.795307	1.600232783	1	36	1	1	2	24	1	10	1	5996.395403	0.1078797084
5997.39554	1.600131362	1	37	1	9	3	1	3	n/a	n/a	n/a	n/a
5998.995671	1.600442906	1	38	1	9	3	2	3	n/a	n/a	n/a	n/a
6000.596114	1.600260662	1	39	1	9	3	3	3	n/a	n/a	n/a	n/a
6002.196375	1.600114293	1	40	1	9	3	4	3	n/a	n/a	n/a	n/a
6003.796489	1.600236422	1	41	1	9	3	5	3	n/a	n/a	n/a	n/a
6005.396725	1.600228824	1	42	1	9	3	6	3	n/a	n/a	n/a	n/a
6006.996954	1.60036896	1	43	1	9	3	7	3	n/a	n/a	n/a	n/a
6008.597323	1.600240954	1	44	1	9	3	8	3	n/a	n/a	n/a	n/a
6010.197564	1.600115312	1	45	1	9	3	9	3	n/a	n/a	n/a	n/a
6011.797679	1.600265809	1	46	1	9	3	10	3	n/a	n/a	n/a	n/a
6013.397945	1.600288388	1	47	1	9	3	11	3	n/a	n/a	n/a	n/a
6014.998234	1.600274609	1	48	1	9	3	12	3	n/a	n/a	n/a	n/a
6016.598508	1.600241588	1	49	1	3	4	1	2	10	0	6017.198593	0.2120787959
6018.19875	1.600239476	1	50	1	3	4	2	1	11	n/a	6018.798829	n/a
6019.798989	1.600228913	1	51	1	3	4	3	2	11	n/a	6020.399069	n/a
6021.399218	1.600234876	1	52	1	3	4	4	1	11	n/a	6021.999306	n/a
6022.999453	1.600100968	1	53	1	3	4	5	2	11	0	6023.599402	-0.08831003638
6024.599554	1.600260173	1	54	1	3	4	6	2	12	0	6025.199644	0.90513841
6026.199814	1.600259064	1	55	1	3	4	7	1	13	1	6026.799918	0.7095371742
6027.800073	1.600228841	1	56	1	3	4	8	2	13	1	6028.400177	0.4132944825
6029.400302	1.600235394	1	57	1	3	4	9	2	13	n/a	6030.000458	n/a
6031.000537	1.600231918	1	58	1	3	4	10	1	13	1	6031.600626	0.512275254
6032.600769	1.600231235	1	59	1	3	4	11	1	12	0	6033.20086	0.6092842734
6034.201001	1.600231493	1	60	1	3	4	12	1	13	1	6034.801112	0.60931681
6035.801232	1.600259832	1	61	1	3	4	13	1	13	1	6036.401338	0.6054985848
6037.401492	1.600228558	1	62	1	3	4	14	2	13	1	6038.001572	0.4105791499
6039.001721	1.600239467	1	63	1	3	4	15	2	12	0	6039.601828	0.3117135833
6040.60196	1.600231858	1	64	1	3	4	16	2	13	0	6041.20204	0.505459432
6042.202192	1.600236759	1	65	1	3	4	17	2	14	1	6042.802289	0.5051391011
6043.802429	1.600217938	1	66	1	3	4	18	2	14	0	6044.402507	0.6051161978
6045.402647	1.600371826	1	67	1	3	4	19	2	15	1	6046.002861	0.605054743
6047.003018	1.600117795	1	68	1	3	4	20	2	15	1	6047.602984	0.4071943499
6048.603136	1.600358252	1	69	1	3	4	21	1	15	0	6049.203223	0.7108677385
6050.203494	1.600120378	1	70	1	3	4	22	2	15	1	6050.803468	0.5122869677
6051.803615	1.600247022	1	71	1	3	4	23	1	15	1	6052.403737	0.4092153507
6053.403862	1.600238501	1	72	1	3	4	24	2	15	1	6054.00393	0.3119167157
6055.0041	1.600278605	1	73	1	9	5	1	3	n/a	n/a	n/a	n/a
6056.604379	1.60028704	1	74	1	9	5	2	3	n/a	n/a	n/a	n/a
6058.204666	1.600250754	1	75	1	9	5	3	3	n/a	n/a	n/a	n/a
6059.804917	1.600243094	1	76	1	9	5	4	3	n/a	n/a	n/a	n/a
6061.40516	1.600110375	1	77	1	9	5	5	3	n/a	n/a	n/a	n/a
6063.00527	1.600244837	1	78	1	9	5	6	3	n/a	n/a	n/a	n/a
6064.605515	1.600244381	1	79	1	9	5	7	3	n/a	n/a	n/a	n/a
6066.205759	1.600226029	1	80	1	9	5	8	3	n/a	n/a	n/a	n/a
6067.805985	1.600267164	1	81	1	9	5	9	3	n/a	n/a	n/a	n/a
6069.406253	1.600207229	1	82	1	9	5	10	3	n/a	n/a	n/a	n/a
6071.00646	1.600240459	1	83	1	9	5	11	3	n/a	n/a	n/a	n/a
6072.6067	1.600245067	1	84	1	9	5	12	3	n/a	n/a	n/a	n/a
6074.206945	1.600222434	1	85	1	5	6	1	2	14	1	6074.807028	0.2137147304
6075.807168	1.60024234	1	86	1	5	6	2	2	14	1	6076.40726	0.4085137841
6077.40741	1.600241613	1	87	1	5	6	3	2	14	1	6078.007495	0.5076976271
6079.007652	1.600228159	1	88	1	5	6	4	2	13	1	6079.60774	0.4053349784
6080.60788	1.600238423	1	89	1	5	6	5	2	13	1	6081.207969	0.5051435434
6082.208118	1.600243424	1	90	1	5	6	6	2	13	1	6082.808205	0.4090020084
6083.808362	1.600199803	1	91	1	5	6	7	2	12	1	6084.408449	0.4079001239
6085.408562	1.600385726	1	92	1	5	6	8	1	12	0	6086.008691	0.6063774076
6087.008947	1.600101229	1	93	1	5	6	9	2	13	1	6087.608919	0.6035642377
6088.609049	1.600257801	1	94	1	5	6	10	1	13	1	6089.209174	0.7051341011
6090.209306	1.600239013	1	95	1	5	6	11	2	13	1	6090.80939	0.5132529613
6091.809545	1.600350022	1	96	1	5	6	12	1	12	1	6092.409738	0.3154475723
6093.409895	1.6001149	1	97	1	5	6	13	1	12	0	6094.009867	0.3063183377
6095.01001	1.600255084	1	98	1	5	6	14	2	13	1	6095.610125	0.5059869685
6096.610265	1.600269473	1	99	1	5	6	15	2	13	0	6097.210467	0.8054681024
6098.210535	1.60027654	1	100	1	5	6	16	1	14	1	6098.810649	0.4083002843
6099.810811	1.600283579	1	101	1	5	6	17	1	14	1	6100.410918	0.4044816974
6101.411095	1.600231817	1	102	1	5	6	18	2	14	1	6102.011169	0.6048377251
6103.011327	1.600220365	1	103	1	5	6	19	2	13	0	6103.611397	0.5044819853
6104.611547	1.600237176	1	104	1	5	6	20	2	14	1	6105.211548	0.7088951053
6106.211784	1.600224823	1	105	1	5	6	21	2	14	1	6106.811884	0.603232478
6107.812009	1.600253549	1	106	1	5	6	22	2	14	1	6108.412119	0.4068857438
6109.412263	1.600108049	1	107	1	5	6	23	1	13	0	6110.012218	0.5090440286
6111.012371	1.600353479	1	108	1	5	6	24	1	14	0	6111.61247	0.5069198579
6112.612724	1.600254882	1	109	1	9	7	1	3	n/a	n/a	n/a	n/a
6114.212979	1.600104969	1	110	1	9	7	2	3	n/a	n/a	n/a	n/a
6115.813084	1.600248632	1	111	1	9	7	3	3	n/a	n/a	n/a	n/a
6117.413333	1.600245123	1	112	1	9	7	4	3	n/a	n/a	n/a	n/a
6119.013578	1.600285306	1	113	1	9	7	5	3	n/a	n/a	n/a	n/a
6120.613863	1.600283634	1	114	1	9	7	6	3	n/a	n/a	n/a	n/a
6122.214147	1.600246126	1	115	1	9	7	7	3	n/a	n/a	n/a	n/a
6123.814393	1.600108285	1	116	1	9	7	8	3	n/a	n/a	n/a	n/a
6125.414501	1.600234147	1	117	1	9	7	9	3	n/a	n/a	n/a	n/a
6127.014735	1.60023437	1	118	1	9	7	10	3	n/a	n/a	n/a	n/a
6128.61497	1.600253472	1	119	1	9	7	11	3	n/a	n/a	n/a	n/a
6130.215223	1.600242272	1	120	1	9	7	12	3	n/a	n/a	n/a	n/a
6131.815465	1.600250801	1	121	1	7	8	1	2	15	1	6132.415566	0.8103049312
6133.415716	1.60022751	1	122	1	7	8	2	2	15	1	6134.015933	0.4052327503
6135.015944	1.600249281	1	123	1	7	8	3	2	15	0	6135.616021	0.5091831848
6136.616193	1.600222586	1	124	1	7	8	4	1	15	1	6137.216246	0.5124894929
6138.216416	1.600279573	1	125	1	7	8	5	2	15	1	6138.816519	0.6121701898
6139.816695	1.600281165	1	126	1	7	8	6	2	15	0	6140.416792	0.3110656672
6141.416976	1.600260855	1	127	1	7	8	7	1	15	1	6142.017096	0.6076291568
6143.017237	1.6002408	1	128	1	7	8	8	2	15	1	6143.617316	0.4096023568
6144.617478	1.600233782	1	129	1	7	8	9	2	15	1	6145.217427	0.4091898465
6146.217712	1.600263305	1	130	1	7	8	10	1	14	1	6146.817796	0.4069605487
6147.817975	1.600083781	1	131	1	7	8	11	2	14	1	6148.418038	0.4031988876
6149.418059	1.600323156	1	132	1	7	8	12	2	14	1	6150.018151	0.4072755157
6151.018382	1.600278206	1	133	1	7	8	13	2	13	1	6151.618515	0.4134167267
6152.61866	1.600125374	1	134	1	7	8	14	1	13	1	6153.218628	0.706185867
6154.218786	1.600225916	1	135	1	7	8	15	2	13	1	6154.818896	0.6067090677
6155.819011	1.600271075	1	136	1	7	8	16	1	12	1	6156.419117	0.406589562
6157.419283	1.600219763	1	137	1	7	8	17	1	12	1	6158.019356	0.6050698597
6159.019502	1.6002379	1	138	1	7	8	18	1	12	0	6159.619585	0.3075536955
6160.61974	1.600266939	1	139	1	7	8	19	2	13	1	6161.219838	0.6083263654
6162.220007	1.600286875	1	140	1	7	8	20	1	13	1	6162.820126	0.8067322314
6163.820294	1.600264879	1	141	1	7	8	21	1	13	0	6164.420278	0.4035811051
6165.420559	1.600097514	1	142	1	7	8	22	1	14	1	6166.020651	0.5097162894
6167.020656	1.600243402	1	143	1	7	8	23	2	14	1	6167.620747	0.606643718
6168.6209	1.600245306	1	144	1	7	8	24	1	14	1	6169.221131	0.4160219902
6170.221145	1.600239464	1	145	1	9	9	1	3	n/a	n/a	n/a	n/a
6171.821385	1.600244092	1	146	1	9	9	2	3	n/a	n/a	n/a	n/a
6173.421629	1.600235527	1	147	1	9	9	3	3	n/a	n/a	n/a	n/a
6175.021864	1.60024666	1	148	1	9	9	4	3	n/a	n/a	n/a	n/a
6176.622111	1.600234528	1	149	1	9	9	5	3	n/a	n/a	n/a	n/a
6178.222345	1.600241919	1	150	1	9	9	6	3	n/a	n/a	n/a	n/a
6179.822587	1.600235864	1	151	1	9	9	7	3	n/a	n/a	n/a	n/a
6181.422823	1.600250966	1	152	1	9	9	8	3	n/a	n/a	n/a	n/a
6183.023074	1.600271828	1	153	1	9	9	9	3	n/a	n/a	n/a	n/a
6184.623346	1.600280852	1	154	1	9	9	10	3	n/a	n/a	n/a	n/a
6186.223627	1.600257732	1	155	1	9	9	11	3	n/a	n/a	n/a	n/a
6187.823885	1.600230845	1	156	1	9	9	12	3	n/a	n/a	n/a	n/a
