onset	duration	run_number	trial_number	att_task	bar_direction	bar_period	bar_step	stim_noise_ori	stim_stair_val	response_val	probe_time	reaction_time
358352.6254	1.604443785	2	1	1	9	1	1	3	n/a	n/a	n/a	n/a
358354.2298	1.600255159	2	2	1	9	1	2	3	n/a	n/a	n/a	n/a
358355.8301	1.600123966	2	3	1	9	1	3	3	n/a	n/a	n/a	n/a
358357.4302	1.600237223	2	4	1	9	1	4	3	n/a	n/a	n/a	n/a
358359.0304	1.600215537	2	5	1	9	1	5	3	n/a	n/a	n/a	n/a
358360.6306	1.600294579	2	6	1	9	1	6	3	n/a	n/a	n/a	n/a
358362.2309	1.600311568	2	7	1	9	1	7	3	n/a	n/a	n/a	n/a
358363.8313	1.600141053	2	8	1	9	1	8	3	n/a	n/a	n/a	n/a
358365.4314	1.60027272	2	9	1	9	1	9	3	n/a	n/a	n/a	n/a
358367.0317	1.600233936	2	10	1	9	1	10	3	n/a	n/a	n/a	n/a
358368.6319	1.600247259	2	11	1	9	1	11	3	n/a	n/a	n/a	n/a
358370.2321	1.600232131	2	12	1	9	1	12	3	n/a	n/a	n/a	n/a
358371.8324	1.600258385	2	13	1	1	2	1	2	9	n/a	358372.4325	n/a
358373.4326	1.600238944	2	14	1	1	2	2	2	9	n/a	358374.0327	n/a
358375.0329	1.600237611	2	15	1	1	2	3	2	9	n/a	358375.633	n/a
358376.6331	1.600243517	2	16	1	1	2	4	2	9	n/a	358377.2332	n/a
358378.2334	1.600288397	2	17	1	1	2	5	1	9	n/a	358378.8336	n/a
358379.8336	1.600282846	2	18	1	1	2	6	1	9	n/a	358380.4337	n/a
358381.4339	1.60025971	2	19	1	1	2	7	1	9	n/a	358382.0341	n/a
358383.0342	1.600142961	2	20	1	1	2	8	1	9	n/a	358383.6343	n/a
358384.6343	1.60013501	2	21	1	1	2	9	2	9	n/a	358385.2344	n/a
358386.2345	1.600252436	2	22	1	1	2	10	1	9	n/a	358386.8346	n/a
358387.8347	1.600357434	2	23	1	1	2	11	2	9	n/a	358388.4349	n/a
358389.4351	1.600251961	2	24	1	1	2	12	2	9	n/a	358390.0351	n/a
358391.0353	1.600212862	2	25	1	1	2	13	2	9	n/a	358391.6354	n/a
358392.6355	1.600260336	2	26	1	1	2	14	1	9	n/a	358393.2356	n/a
358394.2358	1.600298323	2	27	1	1	2	15	2	9	n/a	358394.8359	n/a
358395.8361	1.600269991	2	28	1	1	2	16	1	9	n/a	358396.4362	n/a
358397.4364	1.600253679	2	29	1	1	2	17	1	9	n/a	358398.0365	n/a
358399.0366	1.60023717	2	30	1	1	2	18	2	9	n/a	358399.6367	n/a
358400.6369	1.600096033	2	31	1	1	2	19	2	9	n/a	358401.2369	n/a
358402.237	1.600261531	2	32	1	1	2	20	2	9	n/a	358402.8372	n/a
358403.8372	1.600260702	2	33	1	1	2	21	2	9	n/a	358404.4373	n/a
358405.4375	1.600242643	2	34	1	1	2	22	1	9	n/a	358406.0375	n/a
358407.0377	1.600254823	2	35	1	1	2	23	2	9	n/a	358407.6378	n/a
358408.638	1.600217111	2	36	1	1	2	24	2	9	n/a	358409.2381	n/a
358410.2382	1.600270726	2	37	1	9	3	1	3	n/a	n/a	n/a	n/a
358411.8385	1.600238077	2	38	1	9	3	2	3	n/a	n/a	n/a	n/a
358413.4387	1.600233764	2	39	1	9	3	3	3	n/a	n/a	n/a	n/a
358415.0389	1.600250139	2	40	1	9	3	4	3	n/a	n/a	n/a	n/a
358416.6392	1.600231574	2	41	1	9	3	5	3	n/a	n/a	n/a	n/a
358418.2394	1.600250126	2	42	1	9	3	6	3	n/a	n/a	n/a	n/a
358419.8397	1.600240005	2	43	1	9	3	7	3	n/a	n/a	n/a	n/a
358421.4399	1.600245077	2	44	1	9	3	8	3	n/a	n/a	n/a	n/a
358423.0402	1.600238482	2	45	1	9	3	9	3	n/a	n/a	n/a	n/a
358424.6404	1.600247711	2	46	1	9	3	10	3	n/a	n/a	n/a	n/a
358426.2406	1.600229251	2	47	1	9	3	11	3	n/a	n/a	n/a	n/a
358427.8409	1.600243644	2	48	1	9	3	12	3	n/a	n/a	n/a	n/a
358429.4411	1.600228916	2	49	1	3	4	1	2	9	n/a	358430.0412	n/a
358431.0413	1.600376175	2	50	1	3	4	2	1	9	n/a	358431.6414	n/a
358432.6417	1.600095643	2	51	1	3	4	3	2	9	n/a	358433.2417	n/a
358434.2418	1.600280304	2	52	1	3	4	4	2	9	n/a	358434.8419	n/a
358435.8421	1.600344668	2	53	1	3	4	5	2	9	n/a	358436.4422	n/a
358437.4424	1.600219747	2	54	1	3	4	6	2	9	n/a	358438.0425	n/a
358439.0427	1.600093014	2	55	1	3	4	7	2	9	n/a	358439.6428	n/a
358440.6427	1.60038095	2	56	1	3	4	8	1	9	n/a	358441.243	n/a
358442.2431	1.600163143	2	57	1	3	4	9	1	9	n/a	358442.8431	n/a
358443.8433	1.600238226	2	58	1	3	4	10	2	9	n/a	358444.4434	n/a
358445.4435	1.600255425	2	59	1	3	4	11	2	9	n/a	358446.0436	n/a
358447.0438	1.600183855	2	60	1	3	4	12	1	9	n/a	358447.6439	n/a
358448.644	1.600397079	2	61	1	3	4	13	1	9	n/a	358449.2441	n/a
358450.2444	1.600134107	2	62	1	3	4	14	1	9	n/a	358450.8444	n/a
358451.8445	1.600333365	2	63	1	3	4	15	2	9	n/a	358452.4446	n/a
358453.4448	1.600154235	2	64	1	3	4	16	2	9	n/a	358454.0448	n/a
358455.045	1.600103243	2	65	1	3	4	17	2	9	n/a	358455.6451	n/a
358456.6451	1.600370465	2	66	1	3	4	18	1	9	n/a	358457.2453	n/a
358458.2455	1.600267592	2	67	1	3	4	19	2	9	n/a	358458.8456	n/a
358459.8457	1.600223229	2	68	1	3	4	20	1	9	n/a	358460.4458	n/a
358461.446	1.600249397	2	69	1	3	4	21	1	9	n/a	358462.0461	n/a
358463.0462	1.600253551	2	70	1	3	4	22	1	9	n/a	358463.6463	n/a
358464.6465	1.600241588	2	71	1	3	4	23	1	9	n/a	358465.2465	n/a
358466.2467	1.600225993	2	72	1	3	4	24	2	9	n/a	358466.8469	n/a
358467.8469	1.600282663	2	73	1	9	5	1	3	n/a	n/a	n/a	n/a
358469.4472	1.600275723	2	74	1	9	5	2	3	n/a	n/a	n/a	n/a
358471.0475	1.600278538	2	75	1	9	5	3	3	n/a	n/a	n/a	n/a
358472.6478	1.600237795	2	76	1	9	5	4	3	n/a	n/a	n/a	n/a
358474.248	1.600105715	2	77	1	9	5	5	3	n/a	n/a	n/a	n/a
358475.8481	1.600248984	2	78	1	9	5	6	3	n/a	n/a	n/a	n/a
358477.4484	1.600293645	2	79	1	9	5	7	3	n/a	n/a	n/a	n/a
358479.0486	1.600286176	2	80	1	9	5	8	3	n/a	n/a	n/a	n/a
358480.6489	1.600294174	2	81	1	9	5	9	3	n/a	n/a	n/a	n/a
358482.2492	1.600225626	2	82	1	9	5	10	3	n/a	n/a	n/a	n/a
358483.8495	1.600146465	2	83	1	9	5	11	3	n/a	n/a	n/a	n/a
358485.4496	1.600291276	2	84	1	9	5	12	3	n/a	n/a	n/a	n/a
358487.0499	1.600295261	2	85	1	5	6	1	1	9	n/a	358487.6499	n/a
358488.6502	1.600253225	2	86	1	5	6	2	2	9	n/a	358489.2503	n/a
358490.2504	1.600129588	2	87	1	5	6	3	1	9	n/a	358490.8504	n/a
358491.8506	1.600232605	2	88	1	5	6	4	2	9	n/a	358492.4507	n/a
358493.4508	1.600237462	2	89	1	5	6	5	2	9	n/a	358494.0509	n/a
358495.051	1.608591277	2	90	1	5	6	6	1	9	n/a	358495.6595	n/a
358496.6596	1.600248667	2	91	1	5	6	7	2	9	n/a	358497.2597	n/a
358498.2599	1.600235872	2	92	1	5	6	8	2	9	n/a	358498.86	n/a
358499.8601	1.600241728	2	93	1	5	6	9	2	9	n/a	358500.4602	n/a
358501.4604	1.600265097	2	94	1	5	6	10	1	9	n/a	358502.0605	n/a
358503.0606	1.600293617	2	95	1	5	6	11	2	9	n/a	358503.6607	n/a
358504.6609	1.600269223	2	96	1	5	6	12	1	9	n/a	358505.261	n/a
358506.2612	1.600248574	2	97	1	5	6	13	1	9	n/a	358506.8613	n/a
358507.8614	1.60013726	2	98	1	5	6	14	2	9	n/a	358508.4614	n/a
358509.4616	1.600216046	2	99	1	5	6	15	2	9	n/a	358510.0616	n/a
358511.0618	1.600255058	2	100	1	5	6	16	1	9	n/a	358511.6619	n/a
358512.662	1.600243829	2	101	1	5	6	17	2	9	n/a	358513.2621	n/a
358514.2623	1.600247533	2	102	1	5	6	18	1	9	n/a	358514.8624	n/a
358515.8625	1.600236797	2	103	1	5	6	19	1	9	n/a	358516.4626	n/a
358517.4628	1.600248562	2	104	1	5	6	20	1	9	n/a	358518.0629	n/a
358519.063	1.600257135	2	105	1	5	6	21	2	9	n/a	358519.6631	n/a
358520.6633	1.600236177	2	106	1	5	6	22	2	9	n/a	358521.2634	n/a
358522.2635	1.600247572	2	107	1	5	6	23	2	9	n/a	358522.8636	n/a
358523.8638	1.600262844	2	108	1	5	6	24	1	9	n/a	358524.4638	n/a
358525.464	1.600267509	2	109	1	9	7	1	3	n/a	n/a	n/a	n/a
358527.0643	1.60029904	2	110	1	9	7	2	3	n/a	n/a	n/a	n/a
358528.6646	1.600104428	2	111	1	9	7	3	3	n/a	n/a	n/a	n/a
358530.2647	1.600252061	2	112	1	9	7	4	3	n/a	n/a	n/a	n/a
358531.8649	1.600241074	2	113	1	9	7	5	3	n/a	n/a	n/a	n/a
358533.4652	1.60025469	2	114	1	9	7	6	3	n/a	n/a	n/a	n/a
358535.0654	1.600252151	2	115	1	9	7	7	3	n/a	n/a	n/a	n/a
358536.6657	1.60024069	2	116	1	9	7	8	3	n/a	n/a	n/a	n/a
358538.2659	1.600236397	2	117	1	9	7	9	3	n/a	n/a	n/a	n/a
358539.8662	1.600258649	2	118	1	9	7	10	3	n/a	n/a	n/a	n/a
358541.4664	1.600328819	2	119	1	9	7	11	3	n/a	n/a	n/a	n/a
358543.0668	1.600144704	2	120	1	9	7	12	3	n/a	n/a	n/a	n/a
358544.6669	1.600232169	2	121	1	7	8	1	1	9	n/a	358545.267	n/a
358546.2671	1.60034756	2	122	1	7	8	2	1	9	n/a	358546.8673	n/a
358547.8675	1.600228154	2	123	1	7	8	3	1	9	n/a	358548.4675	n/a
358549.4677	1.600272695	2	124	1	7	8	4	2	9	n/a	358550.0678	n/a
358551.068	1.600118171	2	125	1	7	8	5	1	9	n/a	358551.6681	n/a
358552.6681	1.60025501	2	126	1	7	8	6	2	9	n/a	358553.2682	n/a
358554.2684	1.600229497	2	127	1	7	8	7	1	9	n/a	358554.8684	n/a
358555.8686	1.600252343	2	128	1	7	8	8	1	9	n/a	358556.4687	n/a
358557.4688	1.600336965	2	129	1	7	8	9	1	9	n/a	358558.0689	n/a
358559.0692	1.600138543	2	130	1	7	8	10	2	9	n/a	358559.6692	n/a
358560.6693	1.600261418	2	131	1	7	8	11	2	9	n/a	358561.2694	n/a
358562.2696	1.600254951	2	132	1	7	8	12	2	9	n/a	358562.8697	n/a
358563.8698	1.600227862	2	133	1	7	8	13	2	9	n/a	358564.4699	n/a
358565.4701	1.600258602	2	134	1	7	8	14	1	9	n/a	358566.0701	n/a
358567.0703	1.600295597	2	135	1	7	8	15	1	9	n/a	358567.6704	n/a
358568.6706	1.600287774	2	136	1	7	8	16	2	9	n/a	358569.2706	n/a
358570.2709	1.600138445	2	137	1	7	8	17	1	9	n/a	358570.8709	n/a
358571.871	1.600234075	2	138	1	7	8	18	1	9	n/a	358572.4711	n/a
358573.4713	1.600354606	2	139	1	7	8	19	1	9	n/a	358574.0714	n/a
358575.0716	1.600198623	2	140	1	7	8	20	1	9	n/a	358575.6716	n/a
358576.6718	1.600273161	2	141	1	7	8	21	1	9	n/a	358577.2719	n/a
358578.2721	1.600245782	2	142	1	7	8	22	1	9	n/a	358578.8722	n/a
358579.8723	1.600127089	2	143	1	7	8	23	1	9	n/a	358580.4723	n/a
358581.4725	1.600064238	2	144	1	7	8	24	1	9	n/a	358582.0726	n/a
358583.0725	1.600355868	2	145	1	9	9	1	3	n/a	n/a	n/a	n/a
358584.6729	1.600327335	2	146	1	9	9	2	3	n/a	n/a	n/a	n/a
358586.2732	1.600232228	2	147	1	9	9	3	3	n/a	n/a	n/a	n/a
358587.8735	1.600252884	2	148	1	9	9	4	3	n/a	n/a	n/a	n/a
358589.4737	1.600301187	2	149	1	9	9	5	3	n/a	n/a	n/a	n/a
358591.074	1.600285605	2	150	1	9	9	6	3	n/a	n/a	n/a	n/a
358592.6743	1.600243793	2	151	1	9	9	7	3	n/a	n/a	n/a	n/a
358594.2745	1.600229117	2	152	1	9	9	8	3	n/a	n/a	n/a	n/a
358595.8748	1.600123966	2	153	1	9	9	9	3	n/a	n/a	n/a	n/a
358597.4749	1.600374677	2	154	1	9	9	10	3	n/a	n/a	n/a	n/a
358599.0753	1.600190963	2	155	1	9	9	11	3	n/a	n/a	n/a	n/a
358600.6755	1.600199315	2	156	1	9	9	12	3	n/a	n/a	n/a	n/a
