onset	duration	run_number	trial_number	att_task	bar_direction	bar_period	bar_step	stim_noise_ori	stim_stair_val	response_val	probe_time	reaction_time
673235.6792	1.598401796	2	1	1	9	1	1	3	n/a	n/a	n/a	n/a
673237.2776	1.600313652	2	2	1	9	1	2	3	n/a	n/a	n/a	n/a
673238.878	1.600249065	2	3	1	9	1	3	3	n/a	n/a	n/a	n/a
673240.4782	1.600242358	2	4	1	9	1	4	3	n/a	n/a	n/a	n/a
673242.0784	1.600137722	2	5	1	9	1	5	3	n/a	n/a	n/a	n/a
673243.6786	1.600226868	2	6	1	9	1	6	3	n/a	n/a	n/a	n/a
673245.2788	1.600293542	2	7	1	9	1	7	3	n/a	n/a	n/a	n/a
673246.8791	1.600168597	2	8	1	9	1	8	3	n/a	n/a	n/a	n/a
673248.4793	1.600248403	2	9	1	9	1	9	3	n/a	n/a	n/a	n/a
673250.0795	1.600285158	2	10	1	9	1	10	3	n/a	n/a	n/a	n/a
673251.6798	1.600273461	2	11	1	9	1	11	3	n/a	n/a	n/a	n/a
673253.2801	1.600279532	2	12	1	9	1	12	3	n/a	n/a	n/a	n/a
673254.8804	1.600127571	2	13	1	1	2	1	1	5	n/a	673255.4805	n/a
673256.4805	1.60024289	2	14	1	1	2	2	1	5	n/a	673257.0806	n/a
673258.0807	1.600247836	2	15	1	1	2	3	1	5	n/a	673258.6808	n/a
673259.681	1.600228929	2	16	1	1	2	4	1	5	n/a	673260.2811	n/a
673261.2812	1.600217181	2	17	1	1	2	5	2	5	1	673261.8813	0.7138086779
673262.8814	1.600248087	2	18	1	1	2	6	1	4	1	673263.4815	0.6125249134
673264.4817	1.60026661	2	19	1	1	2	7	2	4	1	673265.0818	0.4137440714
673266.0819	1.600254813	2	20	1	1	2	8	2	4	1	673266.682	0.6138052746
673267.6822	1.600215281	2	21	1	1	2	9	2	3	0	673268.2823	0.5113774261
673269.2824	1.600280016	2	22	1	1	2	10	2	4	0	673269.8825	0.6133794327
673270.8827	1.600286003	2	23	1	1	2	11	2	5	1	673271.4828	0.6064097842
673272.483	1.600260268	2	24	1	1	2	12	1	5	n/a	673273.0831	n/a
673274.0832	1.60024559	2	25	1	1	2	13	2	5	n/a	673274.6833	n/a
673275.6835	1.600241142	2	26	1	1	2	14	2	5	n/a	673276.2836	n/a
673277.2837	1.600111306	2	27	1	1	2	15	2	5	n/a	673277.8837	n/a
673278.8838	1.600251903	2	28	1	1	2	16	1	5	1	673279.4839	0.910494994
673280.4841	1.600236513	2	29	1	1	2	17	1	5	n/a	673281.0842	n/a
673282.0843	1.600248323	2	30	1	1	2	18	2	5	1	673282.6844	0.3159773584
673283.6846	1.600235326	2	31	1	1	2	19	2	4	0	673284.2846	0.4168907005
673285.2848	1.60024229	2	32	1	1	2	20	2	5	n/a	673285.8849	n/a
673286.885	1.600346458	2	33	1	1	2	21	2	5	1	673287.4851	0.3134907745
673288.4854	1.600137235	2	34	1	1	2	22	1	5	n/a	673289.0854	n/a
673290.0855	1.600241848	2	35	1	1	2	23	1	5	n/a	673290.6856	n/a
673291.6858	1.600286336	2	36	1	1	2	24	1	5	n/a	673292.2859	n/a
673293.2861	1.600280394	2	37	1	9	3	1	3	n/a	n/a	n/a	n/a
673294.8863	1.600257042	2	38	1	9	3	2	3	n/a	n/a	n/a	n/a
673296.4866	1.600240123	2	39	1	9	3	3	3	n/a	n/a	n/a	n/a
673298.0868	1.600098745	2	40	1	9	3	4	3	n/a	n/a	n/a	n/a
673299.6869	1.6002451	2	41	1	9	3	5	3	n/a	n/a	n/a	n/a
673301.2872	1.600261932	2	42	1	9	3	6	3	n/a	n/a	n/a	n/a
673302.8874	1.600235674	2	43	1	9	3	7	3	n/a	n/a	n/a	n/a
673304.4877	1.600246413	2	44	1	9	3	8	3	n/a	n/a	n/a	n/a
673306.0879	1.600236068	2	45	1	9	3	9	3	n/a	n/a	n/a	n/a
673307.6882	1.600236077	2	46	1	9	3	10	3	n/a	n/a	n/a	n/a
673309.2884	1.600250678	2	47	1	9	3	11	3	n/a	n/a	n/a	n/a
673310.8886	1.600230429	2	48	1	9	3	12	3	n/a	n/a	n/a	n/a
673312.4889	1.600303726	2	49	1	3	4	1	1	5	n/a	673313.089	n/a
673314.0892	1.600249361	2	50	1	3	4	2	2	5	n/a	673314.6892	n/a
673315.6894	1.600274849	2	51	1	3	4	3	1	5	n/a	673316.2895	n/a
673317.2897	1.600122325	2	52	1	3	4	4	1	5	0	673317.8898	0.411281671
673318.8898	1.600252184	2	53	1	3	4	5	1	6	1	673319.49	0.5143519097
673320.4901	1.600229832	2	54	1	3	4	6	2	6	1	673321.0902	0.6116740101
673322.0903	1.600245164	2	55	1	3	4	7	2	6	1	673322.6904	0.5137802326
673323.6906	1.600245987	2	56	1	3	4	8	2	5	n/a	673324.2906	n/a
673325.2908	1.600251561	2	57	1	3	4	9	1	5	1	673325.8909	0.8099725617
673326.8911	1.600218926	2	58	1	3	4	10	1	5	1	673327.4911	0.8104024004
673328.4913	1.600239636	2	59	1	3	4	11	1	5	0	673329.0914	0.5137240972
673330.0915	1.600245087	2	60	1	3	4	12	1	6	1	673330.6916	0.6094419326
673331.6918	1.600237297	2	61	1	3	4	13	1	6	1	673332.2918	0.6128970681
673333.292	1.600245593	2	62	1	3	4	14	2	6	1	673333.8921	0.605119878
673334.8922	1.600234606	2	63	1	3	4	15	1	5	1	673335.4923	0.4091378908
673336.4925	1.60023859	2	64	1	3	4	16	2	5	1	673337.0926	0.5130950973
673338.0927	1.600251836	2	65	1	3	4	17	2	5	1	673338.6928	0.6139655552
673339.693	1.6003405	2	66	1	3	4	18	2	4	n/a	673340.293	n/a
673341.2933	1.600125532	2	67	1	3	4	19	1	4	0	673341.8933	0.5131916681
673342.8934	1.600279455	2	68	1	3	4	20	1	5	1	673343.4935	0.7084400132
673344.4937	1.600272526	2	69	1	3	4	21	1	5	1	673345.0938	0.7115894777
673346.094	1.600275597	2	70	1	3	4	22	1	5	n/a	673346.6941	n/a
673347.6943	1.600127425	2	71	1	3	4	23	1	5	n/a	673348.2944	n/a
673349.2944	1.600233406	2	72	1	3	4	24	1	5	n/a	673349.8946	n/a
673350.8946	1.600246094	2	73	1	9	5	1	3	n/a	n/a	n/a	n/a
673352.4949	1.600215758	2	74	1	9	5	2	3	n/a	n/a	n/a	n/a
673354.0951	1.60026831	2	75	1	9	5	3	3	n/a	n/a	n/a	n/a
673355.6954	1.6002635	2	76	1	9	5	4	3	n/a	n/a	n/a	n/a
673357.2956	1.600295726	2	77	1	9	5	5	3	n/a	n/a	n/a	n/a
673358.8959	1.600265081	2	78	1	9	5	6	3	n/a	n/a	n/a	n/a
673360.4962	1.600245513	2	79	1	9	5	7	3	n/a	n/a	n/a	n/a
673362.0964	1.600242577	2	80	1	9	5	8	3	n/a	n/a	n/a	n/a
673363.6967	1.600081532	2	81	1	9	5	9	3	n/a	n/a	n/a	n/a
673365.2967	1.600340287	2	82	1	9	5	10	3	n/a	n/a	n/a	n/a
673366.8971	1.600155232	2	83	1	9	5	11	3	n/a	n/a	n/a	n/a
673368.4972	1.60026889	2	84	1	9	5	12	3	n/a	n/a	n/a	n/a
673370.0975	1.600237987	2	85	1	5	6	1	2	5	n/a	673370.6976	n/a
673371.6977	1.60024621	2	86	1	5	6	2	1	5	n/a	673372.2978	n/a
673373.298	1.600237323	2	87	1	5	6	3	1	5	1	673373.8981	0.4110699713
673374.8982	1.600269536	2	88	1	5	6	4	1	4	n/a	673375.4984	n/a
673376.4985	1.600217026	2	89	1	5	6	5	1	4	1	673377.0986	0.6131941036
673378.0987	1.600227632	2	90	1	5	6	6	2	4	1	673378.6988	0.4103394294
673379.6989	1.600244129	2	91	1	5	6	7	2	4	1	673380.299	0.4096975488
673381.2992	1.600236087	2	92	1	5	6	8	2	3	n/a	673381.8993	n/a
673382.8994	1.600243548	2	93	1	5	6	9	2	3	0	673383.4995	0.3094877036
673384.4997	1.600242906	2	94	1	5	6	10	2	4	n/a	673385.0998	n/a
673386.0999	1.600236403	2	95	1	5	6	11	2	4	0	673386.7	0.3145102811
673387.7001	1.600239793	2	96	1	5	6	12	2	5	n/a	673388.3002	n/a
673389.3004	1.60024089	2	97	1	5	6	13	2	5	1	673389.9005	0.4132011263
673390.9006	1.600226106	2	98	1	5	6	14	1	5	1	673391.5007	0.4098462133
673392.5009	1.600357791	2	99	1	5	6	15	1	5	1	673393.101	0.4131058133
673394.1012	1.600115022	2	100	1	5	6	16	2	4	1	673394.7012	0.4146037617
673395.7013	1.600253829	2	101	1	5	6	17	2	4	1	673396.3014	0.5133833489
673397.3016	1.600238687	2	102	1	5	6	18	1	4	n/a	673397.9017	n/a
673398.9018	1.60029259	2	103	1	5	6	19	1	4	1	673399.5019	0.4125919617
673400.5021	1.600284136	2	104	1	5	6	20	1	3	1	673401.1022	0.5083599808
673402.1024	1.60025731	2	105	1	5	6	21	1	3	n/a	673402.7025	n/a
673403.7027	1.600127396	2	106	1	5	6	22	1	3	n/a	673404.3026	n/a
673405.3028	1.600232352	2	107	1	5	6	23	2	3	0	673405.9029	0.6129789391
673406.903	1.6003563	2	108	1	5	6	24	2	4	n/a	673407.5031	n/a
673408.5034	1.600128719	2	109	1	9	7	1	3	n/a	n/a	n/a	n/a
673410.1035	1.600244478	2	110	1	9	7	2	3	n/a	n/a	n/a	n/a
673411.7037	1.600239248	2	111	1	9	7	3	3	n/a	n/a	n/a	n/a
673413.304	1.600241168	2	112	1	9	7	4	3	n/a	n/a	n/a	n/a
673414.9042	1.600238713	2	113	1	9	7	5	3	n/a	n/a	n/a	n/a
673416.5045	1.60024939	2	114	1	9	7	6	3	n/a	n/a	n/a	n/a
673418.1047	1.600230884	2	115	1	9	7	7	3	n/a	n/a	n/a	n/a
673419.7049	1.600244016	2	116	1	9	7	8	3	n/a	n/a	n/a	n/a
673421.3052	1.600236145	2	117	1	9	7	9	3	n/a	n/a	n/a	n/a
673422.9054	1.600234194	2	118	1	9	7	10	3	n/a	n/a	n/a	n/a
673424.5057	1.600248958	2	119	1	9	7	11	3	n/a	n/a	n/a	n/a
673426.1059	1.600231884	2	120	1	9	7	12	3	n/a	n/a	n/a	n/a
673427.7061	1.60023921	2	121	1	7	8	1	2	4	n/a	673428.3062	n/a
673429.3064	1.600249561	2	122	1	7	8	2	1	4	n/a	673429.9065	n/a
673430.9066	1.600231122	2	123	1	7	8	3	2	4	n/a	673431.5067	n/a
673432.5069	1.600258132	2	124	1	7	8	4	1	4	1	673433.1069	0.6110510036
673434.1071	1.60021761	2	125	1	7	8	5	1	4	0	673434.7072	0.3065621037
673435.7073	1.600241129	2	126	1	7	8	6	2	5	n/a	673436.3074	n/a
673437.3076	1.600238268	2	127	1	7	8	7	1	5	0	673437.9077	0.7091857617
673438.9078	1.600254061	2	128	1	7	8	8	1	6	1	673439.5079	0.4098100166
673440.5081	1.600248913	2	129	1	7	8	9	2	6	1	673441.1082	0.5134628359
673442.1083	1.600285049	2	130	1	7	8	10	2	6	0	673442.7084	0.4125350487
673443.7086	1.600288471	2	131	1	7	8	11	2	7	1	673444.3087	0.6039164261
673445.3089	1.600239939	2	132	1	7	8	12	2	7	1	673445.909	0.5080441775
673446.9091	1.600121096	2	133	1	7	8	13	1	7	1	673447.5092	0.4113487871
673448.5093	1.600248794	2	134	1	7	8	14	1	6	1	673449.1093	0.7095179263
673450.1095	1.600291616	2	135	1	7	8	15	1	6	0	673450.7096	0.4093084004
673451.7098	1.600286103	2	136	1	7	8	16	2	7	0	673452.3099	0.7118650551
673453.3101	1.6002503	2	137	1	7	8	17	2	8	1	673453.9102	0.8117041324
673454.9103	1.600125332	2	138	1	7	8	18	1	8	n/a	673455.5103	n/a
673456.5105	1.600250406	2	139	1	7	8	19	2	8	1	673457.1105	0.5118677714
673458.1107	1.600236461	2	140	1	7	8	20	1	8	1	673458.7108	0.5132463488
673459.7109	1.600350552	2	141	1	7	8	21	2	7	1	673460.311	0.6085235616
673461.3113	1.600128516	2	142	1	7	8	22	2	7	1	673461.9114	0.4096946
673462.9114	1.600265336	2	143	1	7	8	23	1	7	0	673463.5115	0.6118324939
673464.5117	1.600278513	2	144	1	7	8	24	1	8	1	673465.1118	0.706360081
673466.112	1.600276239	2	145	1	9	9	1	3	n/a	n/a	n/a	n/a
673467.7122	1.600126506	2	146	1	9	9	2	3	n/a	n/a	n/a	n/a
673469.3124	1.600260616	2	147	1	9	9	3	3	n/a	n/a	n/a	n/a
673470.9126	1.600218865	2	148	1	9	9	4	3	n/a	n/a	n/a	n/a
673472.5128	1.600260903	2	149	1	9	9	5	3	n/a	n/a	n/a	n/a
673474.1131	1.600226668	2	150	1	9	9	6	3	n/a	n/a	n/a	n/a
673475.7133	1.600240719	2	151	1	9	9	7	3	n/a	n/a	n/a	n/a
673477.3136	1.60024951	2	152	1	9	9	8	3	n/a	n/a	n/a	n/a
673478.9138	1.600237932	2	153	1	9	9	9	3	n/a	n/a	n/a	n/a
673480.5141	1.600233874	2	154	1	9	9	10	3	n/a	n/a	n/a	n/a
673482.1143	1.600276094	2	155	1	9	9	11	3	n/a	n/a	n/a	n/a
673483.7146	1.600284671	2	156	1	9	9	12	3	n/a	n/a	n/a	n/a
