onset	duration	run_number	trial_number	att_task	bar_direction	bar_period	bar_step	stim_noise_ori	stim_stair_val	response_val	probe_time	reaction_time
435498.8883	1.598793817	1	1	1	9	1	1	3	n/a	n/a	n/a	n/a
435500.4871	1.600240624	1	2	1	9	1	2	3	n/a	n/a	n/a	n/a
435502.0873	1.600222731	1	3	1	9	1	3	3	n/a	n/a	n/a	n/a
435503.6875	1.600350502	1	4	1	9	1	4	3	n/a	n/a	n/a	n/a
435505.2879	1.600166636	1	5	1	9	1	5	3	n/a	n/a	n/a	n/a
435506.8881	1.600277406	1	6	1	9	1	6	3	n/a	n/a	n/a	n/a
435508.4883	1.600282198	1	7	1	9	1	7	3	n/a	n/a	n/a	n/a
435510.0886	1.600117378	1	8	1	9	1	8	3	n/a	n/a	n/a	n/a
435511.6887	1.600234633	1	9	1	9	1	9	3	n/a	n/a	n/a	n/a
435513.289	1.600302306	1	10	1	9	1	10	3	n/a	n/a	n/a	n/a
435514.8893	1.600281683	1	11	1	9	1	11	3	n/a	n/a	n/a	n/a
435516.4895	1.600250373	1	12	1	9	1	12	3	n/a	n/a	n/a	n/a
435518.0898	1.600123314	1	13	1	1	2	1	1	9	1	435518.6898	0.5133297559
435519.6899	1.600236	1	14	1	1	2	2	2	9	1	435520.29	0.4134760162
435521.2902	1.600248353	1	15	1	1	2	3	1	9	1	435521.8902	0.8100543766
435522.8904	1.600226616	1	16	1	1	2	4	1	8	n/a	435523.4905	n/a
435524.4906	1.60024542	1	17	1	1	2	5	2	8	1	435525.0907	0.4135814995
435526.0909	1.600230981	1	18	1	1	2	6	2	8	n/a	435526.691	n/a
435527.6911	1.600348605	1	19	1	1	2	7	2	8	0	435528.2912	0.4057152319
435529.2915	1.600183698	1	20	1	1	2	8	1	9	0	435529.8915	0.3126964982
435530.8916	1.600276117	1	21	1	1	2	9	1	10	1	435531.4918	0.4123997718
435532.4919	1.600269265	1	22	1	1	2	10	1	10	1	435533.092	0.5126212375
435534.0922	1.600101945	1	23	1	1	2	11	1	10	1	435534.6922	0.6138045519
435535.6923	1.600241244	1	24	1	1	2	12	2	9	n/a	435536.2924	n/a
435537.2925	1.6002388	1	25	1	1	2	13	2	9	1	435537.8926	0.6137915279
435538.8928	1.600253664	1	26	1	1	2	14	1	9	1	435539.4929	0.5133766054
435540.493	1.600232753	1	27	1	1	2	15	1	9	1	435541.0931	0.7122067865
435542.0933	1.60024902	1	28	1	1	2	16	1	8	1	435542.6934	0.8129174715
435543.6935	1.600233449	1	29	1	1	2	17	2	8	1	435544.2936	0.7131571631
435545.2937	1.600236163	1	30	1	1	2	18	2	8	1	435545.8938	0.7135125917
435546.894	1.600320218	1	31	1	1	2	19	1	7	1	435547.4941	0.4146487796
435548.4943	1.600244559	1	32	1	1	2	20	1	7	0	435549.0943	0.5087030042
435550.0945	1.60025969	1	33	1	1	2	21	1	8	1	435550.6946	0.610557746
435551.6948	1.600098365	1	34	1	1	2	22	2	8	1	435552.2949	0.3104379538
435553.2949	1.600239172	1	35	1	1	2	23	2	8	1	435553.895	0.5132101805
435554.8951	1.600219248	1	36	1	1	2	24	1	7	0	435555.4954	0.7091849856
435556.4954	1.60027459	1	37	1	9	3	1	3	n/a	n/a	n/a	n/a
435558.0956	1.60024098	1	38	1	9	3	2	3	n/a	n/a	n/a	n/a
435559.6959	1.600242853	1	39	1	9	3	3	3	n/a	n/a	n/a	n/a
435561.2961	1.6002364	1	40	1	9	3	4	3	n/a	n/a	n/a	n/a
435562.8964	1.60024524	1	41	1	9	3	5	3	n/a	n/a	n/a	n/a
435564.4966	1.600231232	1	42	1	9	3	6	3	n/a	n/a	n/a	n/a
435566.0968	1.60024136	1	43	1	9	3	7	3	n/a	n/a	n/a	n/a
435567.6971	1.600244945	1	44	1	9	3	8	3	n/a	n/a	n/a	n/a
435569.2973	1.600302402	1	45	1	9	3	9	3	n/a	n/a	n/a	n/a
435570.8976	1.600160627	1	46	1	9	3	10	3	n/a	n/a	n/a	n/a
435572.4978	1.600228155	1	47	1	9	3	11	3	n/a	n/a	n/a	n/a
435574.098	1.60023274	1	48	1	9	3	12	3	n/a	n/a	n/a	n/a
435575.6982	1.600243101	1	49	1	3	4	1	1	8	n/a	435576.2983	n/a
435577.2985	1.600244784	1	50	1	3	4	2	2	8	n/a	435577.8986	n/a
435578.8987	1.600244957	1	51	1	3	4	3	1	8	n/a	435579.4988	n/a
435580.499	1.600221916	1	52	1	3	4	4	2	8	1	435581.0992	0.7086283973
435582.0992	1.600256155	1	53	1	3	4	5	1	8	1	435582.6993	0.5129410832
435583.6994	1.600241772	1	54	1	3	4	6	1	8	0	435584.2995	0.3157027676
435585.2997	1.600338922	1	55	1	3	4	7	1	9	1	435585.8998	0.3102413436
435586.9	1.600130486	1	56	1	3	4	8	2	9	1	435587.5	0.3103395312
435588.5002	1.600239788	1	57	1	3	4	9	1	9	1	435589.1003	0.4129417553
435590.1004	1.600233121	1	58	1	3	4	10	2	8	1	435590.7005	0.6114421553
435591.7006	1.600303554	1	59	1	3	4	11	2	8	n/a	435592.3008	n/a
435593.3009	1.600282919	1	60	1	3	4	12	2	8	0	435593.901	0.5117716394
435594.9012	1.600111101	1	61	1	3	4	13	2	9	1	435595.5013	0.7109420414
435596.5013	1.600242281	1	62	1	3	4	14	2	9	1	435597.1014	0.8086333318
435598.1016	1.600234432	1	63	1	3	4	15	2	9	0	435598.7017	0.4063520826
435599.7018	1.600259447	1	64	1	3	4	16	2	10	1	435600.3019	0.5131382039
435601.3021	1.600228744	1	65	1	3	4	17	2	10	1	435601.9022	0.5205397435
435602.9023	1.600242917	1	66	1	3	4	18	1	10	1	435603.5024	0.5117115838
435604.5025	1.600240363	1	67	1	3	4	19	1	9	1	435605.1026	0.7246314989
435606.1028	1.600233004	1	68	1	3	4	20	1	9	1	435606.7029	0.5131537195
435607.703	1.600238104	1	69	1	3	4	21	2	9	1	435608.3031	0.4129317682
435609.3032	1.60022342	1	70	1	3	4	22	1	8	1	435609.9033	0.5127790312
435610.9035	1.600256992	1	71	1	3	4	23	2	8	1	435611.5036	0.5127405916
435612.5037	1.6002204	1	72	1	3	4	24	2	8	1	435613.1038	0.4201294911
435614.1039	1.600304467	1	73	1	9	5	1	3	n/a	n/a	n/a	n/a
435615.7043	1.600179405	1	74	1	9	5	2	3	n/a	n/a	n/a	n/a
435617.3044	1.600252645	1	75	1	9	5	3	3	n/a	n/a	n/a	n/a
435618.9047	1.600249493	1	76	1	9	5	4	3	n/a	n/a	n/a	n/a
435620.5049	1.600282302	1	77	1	9	5	5	3	n/a	n/a	n/a	n/a
435622.1052	1.600276902	1	78	1	9	5	6	3	n/a	n/a	n/a	n/a
435623.7055	1.600241724	1	79	1	9	5	7	3	n/a	n/a	n/a	n/a
435625.3057	1.600107654	1	80	1	9	5	8	3	n/a	n/a	n/a	n/a
435626.9058	1.600250308	1	81	1	9	5	9	3	n/a	n/a	n/a	n/a
435628.5061	1.600239908	1	82	1	9	5	10	3	n/a	n/a	n/a	n/a
435630.1063	1.600211047	1	83	1	9	5	11	3	n/a	n/a	n/a	n/a
435631.7065	1.600270568	1	84	1	9	5	12	3	n/a	n/a	n/a	n/a
435633.3068	1.60026963	1	85	1	5	6	1	2	7	n/a	435633.907	n/a
435634.9071	1.600279426	1	86	1	5	6	2	2	7	1	435635.5072	0.4111557087
435636.5074	1.60027465	1	87	1	5	6	3	2	7	0	435637.1075	0.5105348862
435638.1076	1.600222425	1	88	1	5	6	4	1	8	1	435638.7077	0.5068071935
435639.7079	1.600242795	1	89	1	5	6	5	2	8	1	435640.308	0.4105113655
435641.3081	1.600242236	1	90	1	5	6	6	1	8	1	435641.9082	0.5115205297
435642.9083	1.600235628	1	91	1	5	6	7	1	7	1	435643.5083	0.6129563655
435644.5086	1.600118666	1	92	1	5	6	8	1	7	0	435645.1085	0.513458961
435646.1087	1.600256886	1	93	1	5	6	9	1	8	1	435646.7088	0.5061988754
435647.709	1.600298058	1	94	1	5	6	10	1	8	1	435648.3091	0.611417121
435649.3093	1.600276358	1	95	1	5	6	11	1	8	1	435649.9094	0.7075427946
435650.9095	1.600092988	1	96	1	5	6	12	2	7	1	435651.5096	0.5111955414
435652.5096	1.600245949	1	97	1	5	6	13	2	7	1	435653.1097	0.8135427812
435654.1099	1.60023368	1	98	1	5	6	14	1	7	1	435654.71	0.5122292018
435655.7101	1.600241408	1	99	1	5	6	15	1	6	1	435656.3102	0.5081677487
435657.3103	1.600246449	1	100	1	5	6	16	2	6	1	435657.9104	0.409702689
435658.9106	1.600354431	1	101	1	5	6	17	2	6	1	435659.5107	0.7128676832
435660.5109	1.60009972	1	102	1	5	6	18	1	5	1	435661.1109	0.8130683274
435662.111	1.600249857	1	103	1	5	6	19	1	5	1	435662.7112	0.6136576911
435663.7113	1.600258117	1	104	1	5	6	20	2	5	1	435664.3114	0.6083554961
435665.3116	1.600242491	1	105	1	5	6	21	1	4	1	435665.9117	0.9123794637
435666.9118	1.600272967	1	106	1	5	6	22	2	4	1	435667.5119	0.6123129397
435668.5121	1.600191342	1	107	1	5	6	23	1	4	1	435669.1121	0.6123836195
435670.1123	1.600243592	1	108	1	5	6	24	2	3	1	435670.7124	0.9121356715
435671.7125	1.600255548	1	109	1	9	7	1	3	n/a	n/a	n/a	n/a
435673.3128	1.600215804	1	110	1	9	7	2	3	n/a	n/a	n/a	n/a
435674.913	1.60025316	1	111	1	9	7	3	3	n/a	n/a	n/a	n/a
435676.5132	1.600278419	1	112	1	9	7	4	3	n/a	n/a	n/a	n/a
435678.1135	1.600273074	1	113	1	9	7	5	3	n/a	n/a	n/a	n/a
435679.7138	1.600251489	1	114	1	9	7	6	3	n/a	n/a	n/a	n/a
435681.314	1.600143693	1	115	1	9	7	7	3	n/a	n/a	n/a	n/a
435682.9142	1.600231944	1	116	1	9	7	8	3	n/a	n/a	n/a	n/a
435684.5144	1.600242616	1	117	1	9	7	9	3	n/a	n/a	n/a	n/a
435686.1147	1.600230088	1	118	1	9	7	10	3	n/a	n/a	n/a	n/a
435687.7149	1.60025252	1	119	1	9	7	11	3	n/a	n/a	n/a	n/a
435689.3151	1.600206368	1	120	1	9	7	12	3	n/a	n/a	n/a	n/a
435690.9153	1.600253545	1	121	1	7	8	1	2	3	n/a	435691.5155	n/a
435692.5156	1.600244643	1	122	1	7	8	2	1	3	1	435693.1157	0.6124719592
435694.1158	1.600239124	1	123	1	7	8	3	2	3	1	435694.7159	0.3148919319
435695.7161	1.600238132	1	124	1	7	8	4	1	2	1	435696.3162	0.512371215
435697.3163	1.600245692	1	125	1	7	8	5	1	2	n/a	435697.9164	n/a
435698.9166	1.600213812	1	126	1	7	8	6	1	2	n/a	435699.5166	n/a
435700.5168	1.600253941	1	127	1	7	8	7	2	2	n/a	435701.1169	n/a
435702.117	1.600247895	1	128	1	7	8	8	1	2	1	435702.7171	0.413019528
435703.7173	1.600226592	1	129	1	7	8	9	2	2	0	435704.3174	0.5141914234
435705.3175	1.600244044	1	130	1	7	8	10	1	3	0	435705.9176	0.5133753066
435706.9177	1.600228732	1	131	1	7	8	11	1	4	1	435707.5178	0.6140827474
435708.518	1.600331411	1	132	1	7	8	12	2	4	1	435709.1182	0.8100325934
435710.1183	1.600158641	1	133	1	7	8	13	1	4	1	435710.7183	0.6135438604
435711.7185	1.600237548	1	134	1	7	8	14	1	3	1	435712.3185	0.6136413279
435713.3187	1.600215971	1	135	1	7	8	15	1	3	0	435713.9189	0.6131705414
435714.9189	1.600248569	1	136	1	7	8	16	2	4	0	435715.5191	0.4133074694
435716.5192	1.600190119	1	137	1	7	8	17	1	5	1	435717.1192	0.5137870474
435718.1194	1.60030251	1	138	1	7	8	18	1	5	0	435718.7196	0.6090745655
435719.7197	1.600290731	1	139	1	7	8	19	2	6	0	435720.3198	0.5117887658
435721.32	1.600275846	1	140	1	7	8	20	2	7	1	435721.92	0.7111848712
435722.9202	1.600231009	1	141	1	7	8	21	2	7	1	435723.5203	0.6106149889
435724.5205	1.600124093	1	142	1	7	8	22	2	7	1	435725.1204	0.612810976
435726.1206	1.600291882	1	143	1	7	8	23	1	6	1	435726.7207	0.7120736151
435727.7209	1.600271442	1	144	1	7	8	24	1	6	1	435728.321	0.8106425808
435729.3211	1.600276294	1	145	1	9	9	1	3	n/a	n/a	n/a	n/a
435730.9214	1.600103386	1	146	1	9	9	2	3	n/a	n/a	n/a	n/a
435732.5215	1.600247348	1	147	1	9	9	3	3	n/a	n/a	n/a	n/a
435734.1218	1.600296356	1	148	1	9	9	4	3	n/a	n/a	n/a	n/a
435735.7221	1.600176791	1	149	1	9	9	5	3	n/a	n/a	n/a	n/a
435737.3222	1.600246821	1	150	1	9	9	6	3	n/a	n/a	n/a	n/a
435738.9225	1.600253908	1	151	1	9	9	7	3	n/a	n/a	n/a	n/a
435740.5227	1.600230356	1	152	1	9	9	8	3	n/a	n/a	n/a	n/a
435742.123	1.600268441	1	153	1	9	9	9	3	n/a	n/a	n/a	n/a
435743.7232	1.600289055	1	154	1	9	9	10	3	n/a	n/a	n/a	n/a
435745.3235	1.600268706	1	155	1	9	9	11	3	n/a	n/a	n/a	n/a
435746.9238	1.600118325	1	156	1	9	9	12	3	n/a	n/a	n/a	n/a
