onset	duration	run_number	trial_number	att_task	bar_direction	bar_period	bar_step	stim_noise_ori	stim_stair_val	response_val	probe_time	reaction_time
4891.729619	1.5266754	1	1	1	9	1	1	3	n/a	n/a	n/a	n/a
4893.256294	1.5310785	1	2	1	9	1	2	3	n/a	n/a	n/a	n/a
4894.787373	1.5283383	1	3	1	9	1	3	3	n/a	n/a	n/a	n/a
4896.315711	1.5291869	1	4	1	9	1	4	3	n/a	n/a	n/a	n/a
4897.844898	1.526286	1	5	1	9	1	5	3	n/a	n/a	n/a	n/a
4899.371184	1.5233881	1	6	1	9	1	6	3	n/a	n/a	n/a	n/a
4900.894572	1.5225259	1	7	1	9	1	7	3	n/a	n/a	n/a	n/a
4902.417098	1.5220461	1	8	1	9	1	8	3	n/a	n/a	n/a	n/a
4903.939144	1.5222175	1	9	1	9	1	9	3	n/a	n/a	n/a	n/a
4905.461362	1.5223875	1	10	1	9	1	10	3	n/a	n/a	n/a	n/a
4906.983749	1.5225757	1	11	1	9	1	11	3	n/a	n/a	n/a	n/a
4908.506325	1.5210645	1	12	1	9	1	12	3	n/a	n/a	n/a	n/a
4910.02739	1.5220294	1	13	1	1	2	1	2	9	n/a	4910.598309	n/a
4911.549419	1.5236831	1	14	1	1	2	2	2	9	n/a	4912.12086	n/a
4913.073102	1.5215197	1	15	1	1	2	3	2	9	n/a	4913.643437	n/a
4914.594622	1.5219865	1	16	1	1	2	4	2	9	n/a	4915.164989	n/a
4916.116608	1.5218243	1	17	1	1	2	5	1	9	n/a	4916.686821	n/a
4917.638432	1.5208496	1	18	1	1	2	6	1	9	n/a	4918.209544	n/a
4919.159282	1.5211131	1	19	1	1	2	7	1	9	n/a	4919.729048	n/a
4920.680395	1.5219632	1	20	1	1	2	8	1	9	n/a	4921.251813	n/a
4922.202358	1.5247918	1	21	1	1	2	9	2	9	n/a	4922.774923	n/a
4923.72715	1.5237809	1	22	1	1	2	10	1	9	n/a	4924.298498	n/a
4925.250931	1.5231259	1	23	1	1	2	11	2	9	n/a	4925.822082	n/a
4926.774057	1.5226196	1	24	1	1	2	12	1	9	n/a	4927.345469	n/a
4928.296677	1.5217128	1	25	1	1	2	13	2	9	n/a	4928.866787	n/a
4929.818389	1.5232762	1	26	1	1	2	14	2	9	n/a	4930.389667	n/a
4931.341666	1.5209633	1	27	1	1	2	15	1	9	n/a	4931.912241	n/a
4932.862629	1.5217347	1	28	1	1	2	16	1	9	n/a	4933.43255	n/a
4934.384364	1.5207437	1	29	1	1	2	17	2	9	n/a	4934.955416	n/a
4935.905107	1.5207673	1	30	1	1	2	18	1	9	n/a	4936.474689	n/a
4937.425875	1.5210883	1	31	1	1	2	19	2	9	n/a	4937.996778	n/a
4938.946963	1.5223196	1	32	1	1	2	20	2	9	n/a	4939.516588	n/a
4940.469283	1.5212914	1	33	1	1	2	21	1	9	n/a	4941.039803	n/a
4941.990574	1.5153885	1	34	1	1	2	22	2	9	1	4942.557301	0.6686001
4943.505962	1.5201819	1	35	1	1	2	23	1	9	n/a	4944.075486	n/a
4945.026144	1.520988	1	36	1	1	2	24	2	9	n/a	4945.596233	n/a
4946.547132	1.517952	1	37	1	9	3	1	3	n/a	n/a	n/a	n/a
4948.065084	1.5213951	1	38	1	9	3	2	3	n/a	n/a	n/a	n/a
4949.586479	1.5219119	1	39	1	9	3	3	3	n/a	n/a	n/a	n/a
4951.108391	1.5237816	1	40	1	9	3	4	3	n/a	n/a	n/a	n/a
4952.632173	1.5198043	1	41	1	9	3	5	3	n/a	n/a	n/a	n/a
4954.151977	1.5217529	1	42	1	9	3	6	3	n/a	n/a	n/a	n/a
4955.67373	1.5216	1	43	1	9	3	7	3	n/a	n/a	n/a	n/a
4957.19533	1.522077	1	44	1	9	3	8	3	n/a	n/a	n/a	n/a
4958.717407	1.5220824	1	45	1	9	3	9	3	n/a	n/a	n/a	n/a
4960.239489	1.5211891	1	46	1	9	3	10	3	n/a	n/a	n/a	n/a
4961.760679	1.5218948	1	47	1	9	3	11	3	n/a	n/a	n/a	n/a
4963.282573	1.5214268	1	48	1	9	3	12	3	n/a	n/a	n/a	n/a
4964.804	1.5223965	1	49	1	3	4	1	1	9	n/a	4965.374998	n/a
4966.326397	1.5219704	1	50	1	3	4	2	2	9	n/a	4966.897572	n/a
4967.848367	1.5207669	1	51	1	3	4	3	2	9	n/a	4968.419218	n/a
4969.369134	1.5223043	1	52	1	3	4	4	2	9	n/a	4969.939654	n/a
4970.891438	1.5229815	1	53	1	3	4	5	2	9	n/a	4971.46286	n/a
4972.41442	1.5218623	1	54	1	3	4	6	2	9	n/a	4972.985426	n/a
4973.936282	1.5220728	1	55	1	3	4	7	1	9	n/a	4974.507776	n/a
4975.458355	1.5226923	1	56	1	3	4	8	1	9	n/a	4976.029164	n/a
4976.981047	1.5208486	1	57	1	3	4	9	1	9	n/a	4977.550823	n/a
4978.501896	1.5220751	1	58	1	3	4	10	1	9	n/a	4979.073233	n/a
4980.023971	1.5209344	1	59	1	3	4	11	1	9	n/a	4980.594471	n/a
4981.544905	1.5116403	1	60	1	3	4	12	1	9	n/a	4982.112003	n/a
4983.056546	1.5217948	1	61	1	3	4	13	1	9	n/a	4983.627248	n/a
4984.57834	1.5219266	1	62	1	3	4	14	2	9	n/a	4985.149229	n/a
4986.100267	1.5206558	1	63	1	3	4	15	1	9	0	4986.669618	0.479956
4987.620923	1.5214163	1	64	1	3	4	16	2	10	n/a	4988.192176	n/a
4989.142339	1.520968	1	65	1	3	4	17	1	10	n/a	4989.713414	n/a
4990.663307	1.5199271	1	66	1	3	4	18	1	10	1	4991.232267	0.866028
4992.183234	1.5217151	1	67	1	3	4	19	1	10	n/a	4992.753254	n/a
4993.704949	1.5225681	1	68	1	3	4	20	2	10	n/a	4994.27592	n/a
4995.227517	1.5212508	1	69	1	3	4	21	2	10	n/a	4995.798357	n/a
4996.748768	1.5211185	1	70	1	3	4	22	1	10	n/a	4997.319721	n/a
4998.269887	1.5208546	1	71	1	3	4	23	1	10	n/a	4998.84	n/a
4999.790741	1.5220997	1	72	1	3	4	24	1	10	n/a	5000.361915	n/a
5001.312841	1.5219603	1	73	1	9	5	1	3	n/a	n/a	n/a	n/a
5002.834801	1.5213728	1	74	1	9	5	2	3	n/a	n/a	n/a	n/a
5004.356174	1.5208082	1	75	1	9	5	3	3	n/a	n/a	n/a	n/a
5005.876982	1.5227478	1	76	1	9	5	4	3	n/a	n/a	n/a	n/a
5007.39973	1.5210453	1	77	1	9	5	5	3	n/a	n/a	n/a	n/a
5008.920775	1.5219415	1	78	1	9	5	6	3	n/a	n/a	n/a	n/a
5010.442717	1.5218967	1	79	1	9	5	7	3	n/a	n/a	n/a	n/a
5011.964614	1.5213926	1	80	1	9	5	8	3	n/a	n/a	n/a	n/a
5013.486006	1.5236324	1	81	1	9	5	9	3	n/a	n/a	n/a	n/a
5015.009639	1.5214401	1	82	1	9	5	10	3	n/a	n/a	n/a	n/a
5016.531079	1.5220351	1	83	1	9	5	11	3	n/a	n/a	n/a	n/a
5018.053114	1.5209205	1	84	1	9	5	12	3	n/a	n/a	n/a	n/a
5019.574034	1.5214508	1	85	1	5	6	1	2	10	n/a	5020.144573	n/a
5021.095485	1.5204435	1	86	1	5	6	2	2	10	1	5021.66562	-0.0795857
5022.615929	1.5209416	1	87	1	5	6	3	1	10	n/a	5023.186972	n/a
5024.13687	1.5207958	1	88	1	5	6	4	1	10	n/a	5024.706563	n/a
5025.657666	1.5224976	1	89	1	5	6	5	1	10	n/a	5026.227888	n/a
5027.180164	1.5233575	1	90	1	5	6	6	2	10	n/a	5027.75131	n/a
5028.703521	1.5202039	1	91	1	5	6	7	2	10	n/a	5029.2734	n/a
5030.223725	1.5278923	1	92	1	5	6	8	2	10	n/a	5030.79565	n/a
5031.751617	1.5293669	1	93	1	5	6	9	2	10	n/a	5032.324394	n/a
5033.280984	1.523262	1	94	1	5	6	10	2	10	n/a	5033.853785	n/a
5034.804246	1.5223727	1	95	1	5	6	11	2	10	0	5035.375834	-0.0793099
5036.326619	1.5198685	1	96	1	5	6	12	2	11	n/a	5036.897788	n/a
5037.846487	1.5214254	1	97	1	5	6	13	2	11	n/a	5038.416696	n/a
5039.367913	1.5233645	1	98	1	5	6	14	2	11	n/a	5039.940118	n/a
5040.891277	1.521158	1	99	1	5	6	15	2	11	n/a	5041.461406	n/a
5042.412435	1.5215514	1	100	1	5	6	16	2	11	n/a	5042.983909	n/a
5043.933987	1.5226867	1	101	1	5	6	17	2	11	n/a	5044.504834	n/a
5045.456673	1.5219631	1	102	1	5	6	18	2	11	n/a	5046.027947	n/a
5046.978636	1.5215543	1	103	1	5	6	19	1	11	0	5047.549176	-0.0797159
5048.500191	1.5228697	1	104	1	5	6	20	1	12	n/a	5049.071124	n/a
5050.02306	1.5206589	1	105	1	5	6	21	1	12	0	5050.593794	-0.0832745
5051.543719	1.5227428	1	106	1	5	6	22	2	13	n/a	5052.115074	n/a
5053.066462	1.5224784	1	107	1	5	6	23	2	13	0	5053.636774	0.1055221
5054.588941	1.5216624	1	108	1	5	6	24	1	14	n/a	5055.159483	n/a
5056.110603	1.5227712	1	109	1	9	7	1	3	n/a	n/a	n/a	n/a
5057.633374	1.5213809	1	110	1	9	7	2	3	n/a	n/a	n/a	n/a
5059.154755	1.5219169	1	111	1	9	7	3	3	n/a	n/a	n/a	n/a
5060.676672	1.5216091	1	112	1	9	7	4	3	n/a	n/a	n/a	n/a
5062.198281	1.528679	1	113	1	9	7	5	3	n/a	n/a	n/a	n/a
5063.72696	1.5278991	1	114	1	9	7	6	3	n/a	n/a	n/a	n/a
5065.254859	1.5266484	1	115	1	9	7	7	3	n/a	n/a	n/a	n/a
5066.781508	1.532867	1	116	1	9	7	8	3	n/a	n/a	n/a	n/a
5068.314375	1.5256653	1	117	1	9	7	9	3	n/a	n/a	n/a	n/a
5069.84004	1.5305088	1	118	1	9	7	10	3	n/a	n/a	n/a	n/a
5071.370549	1.5257448	1	119	1	9	7	11	3	n/a	n/a	n/a	n/a
5072.896293	1.5298042	1	120	1	9	7	12	3	n/a	n/a	n/a	n/a
5074.426098	1.5274123	1	121	1	7	8	1	2	14	n/a	5074.998217	n/a
5075.95351	1.5279012	1	122	1	7	8	2	1	14	1	5076.526839	-0.0807978
5077.481411	1.5271098	1	123	1	7	8	3	1	14	0	5078.054189	0.4853937
5079.008521	1.5297066	1	124	1	7	8	4	2	15	n/a	5079.581559	n/a
5080.538228	1.5309976	1	125	1	7	8	5	1	15	n/a	5081.111291	n/a
5082.069225	1.5222105	1	126	1	7	8	6	1	15	0	5082.640173	0.4843904
5083.591436	1.5244472	1	127	1	7	8	7	1	15	n/a	5084.16336	n/a
5085.115883	1.5239543	1	128	1	7	8	8	1	15	n/a	5085.687272	n/a
5086.639837	1.5218665	1	129	1	7	8	9	2	15	n/a	5087.211084	n/a
5088.161704	1.5223567	1	130	1	7	8	10	1	15	n/a	5088.732168	n/a
5089.68406	1.5218299	1	131	1	7	8	11	1	15	n/a	5090.254598	n/a
5091.20589	1.523195	1	132	1	7	8	12	1	15	n/a	5091.777234	n/a
5092.729085	1.52268	1	133	1	7	8	13	1	15	n/a	5093.299933	n/a
5094.251765	1.5222104	1	134	1	7	8	14	1	15	n/a	5094.823238	n/a
5095.773976	1.5218897	1	135	1	7	8	15	2	15	n/a	5096.34444	n/a
5097.295865	1.5220708	1	136	1	7	8	16	1	15	n/a	5097.866758	n/a
5098.817936	1.5202212	1	137	1	7	8	17	2	15	n/a	5099.387137	n/a
5100.338157	1.5230231	1	138	1	7	8	18	1	15	n/a	5100.90985	n/a
5101.861181	1.5228646	1	139	1	7	8	19	2	15	1	5102.431994	0.3875026
5103.384045	1.5226338	1	140	1	7	8	20	1	15	n/a	5103.954667	n/a
5104.906679	1.5199092	1	141	1	7	8	21	1	15	n/a	5105.477271	n/a
5106.426588	1.5225877	1	142	1	7	8	22	2	15	1	5106.997852	0.6726963
5107.949176	1.5230732	1	143	1	7	8	23	2	15	0	5108.521334	0.7641751
5109.472249	1.5233061	1	144	1	7	8	24	2	15	n/a	5110.04311	n/a
5110.995555	1.5238538	1	145	1	9	9	1	3	n/a	n/a	n/a	n/a
5112.519409	1.5265183	1	146	1	9	9	2	3	n/a	n/a	n/a	n/a
5114.045927	1.5228067	1	147	1	9	9	3	3	n/a	n/a	n/a	n/a
5115.568734	1.5283544	1	148	1	9	9	4	3	n/a	n/a	n/a	n/a
5117.097088	1.5253693	1	149	1	9	9	5	3	n/a	n/a	n/a	n/a
5118.622458	1.5222246	1	150	1	9	9	6	3	n/a	n/a	n/a	n/a
5120.144682	1.5264946	1	151	1	9	9	7	3	n/a	n/a	n/a	n/a
5121.671177	1.5238935	1	152	1	9	9	8	3	n/a	n/a	n/a	n/a
5123.19507	1.524773	1	153	1	9	9	9	3	n/a	n/a	n/a	n/a
5124.719843	1.5258751	1	154	1	9	9	10	3	n/a	n/a	n/a	n/a
5126.245718	1.5265619	1	155	1	9	9	11	3	n/a	n/a	n/a	n/a
5127.77228	1.5270077	1	156	1	9	9	12	3	n/a	n/a	n/a	n/a
