onset	duration	run_number	trial_number	att_task	bar_direction	bar_period	bar_step	stim_noise_ori	stim_stair_val	response_val	probe_time	reaction_time
128.3221083	1.602898398	1	1	1	9	1	1	3	n/a	n/a	n/a	n/a
129.9250067	1.600422702	1	2	1	9	1	2	3	n/a	n/a	n/a	n/a
131.5254294	1.600698123	1	3	1	9	1	3	3	n/a	n/a	n/a	n/a
133.1261275	1.600674314	1	4	1	9	1	4	3	n/a	n/a	n/a	n/a
134.7268018	1.600357063	1	5	1	9	1	5	3	n/a	n/a	n/a	n/a
136.3271589	1.600625626	1	6	1	9	1	6	3	n/a	n/a	n/a	n/a
137.9277845	1.600543674	1	7	1	9	1	7	3	n/a	n/a	n/a	n/a
139.5283282	1.600643967	1	8	1	9	1	8	3	n/a	n/a	n/a	n/a
141.1289722	1.600500231	1	9	1	9	1	9	3	n/a	n/a	n/a	n/a
142.7294724	1.600656215	1	10	1	9	1	10	3	n/a	n/a	n/a	n/a
144.3301286	1.600572687	1	11	1	9	1	11	3	n/a	n/a	n/a	n/a
145.9307013	1.6003381	1	12	1	9	1	12	3	n/a	n/a	n/a	n/a
147.5310394	1.6005758	1	13	1	1	2	1	1	9	n/a	148.1313654	n/a
149.1316152	1.6005744	1	14	1	1	2	2	2	9	n/a	149.7318535	n/a
150.7321896	1.600610151	1	15	1	1	2	3	1	9	n/a	151.332446	n/a
152.3327998	1.600576222	1	16	1	1	2	4	1	9	n/a	152.9330193	n/a
153.933376	1.600520804	1	17	1	1	2	5	2	9	n/a	154.5336057	n/a
155.5338968	1.600592571	1	18	1	1	2	6	1	9	n/a	156.1341448	n/a
157.1344893	1.600571873	1	19	1	1	2	7	1	9	n/a	157.7346745	n/a
158.7350612	1.600511205	1	20	1	1	2	8	1	9	n/a	159.3352341	n/a
160.3355724	1.60061027	1	21	1	1	2	9	2	9	n/a	160.9358256	n/a
161.9361827	1.600541528	1	22	1	1	2	10	1	9	n/a	162.5363685	n/a
163.5367242	1.599967276	1	23	1	1	2	11	1	9	n/a	164.1369498	n/a
165.1366915	1.6010452	1	24	1	1	2	12	1	9	n/a	165.7368446	n/a
166.7377367	1.6333172	1	25	1	1	2	13	1	9	n/a	167.3374365	n/a
168.3710539	1.6007668	1	26	1	1	2	14	2	9	n/a	168.971324	n/a
169.9718207	1.6004028	1	27	1	1	2	15	2	9	n/a	170.5718227	n/a
171.5722235	1.601333559	1	28	1	1	2	16	1	9	n/a	172.1726643	n/a
173.1735571	1.600296041	1	29	1	1	2	17	1	9	n/a	173.7734933	n/a
174.7738531	1.600629052	1	30	1	1	2	18	1	9	n/a	175.3741352	n/a
176.3744822	1.600571098	1	31	1	1	2	19	2	9	n/a	176.9746927	n/a
177.9750533	1.600591197	1	32	1	1	2	20	1	9	n/a	178.5752726	n/a
179.5756444	1.600528629	1	33	1	1	2	21	2	9	n/a	180.1758257	n/a
181.1761731	1.600584972	1	34	1	1	2	22	1	9	n/a	181.7763639	n/a
182.776758	1.600467751	1	35	1	1	2	23	2	9	n/a	183.3769482	n/a
184.3772258	1.6005787	1	36	1	1	2	24	2	9	n/a	184.977646	n/a
185.9778045	1.6004737	1	37	1	9	3	1	3	n/a	n/a	n/a	n/a
187.5782782	1.6006731	1	38	1	9	3	2	3	n/a	n/a	n/a	n/a
189.1789513	1.600586799	1	39	1	9	3	3	3	n/a	n/a	n/a	n/a
190.7795381	1.600629001	1	40	1	9	3	4	3	n/a	n/a	n/a	n/a
192.3801671	1.600463027	1	41	1	9	3	5	3	n/a	n/a	n/a	n/a
193.9806301	1.600685373	1	42	1	9	3	6	3	n/a	n/a	n/a	n/a
195.5813155	1.600422677	1	43	1	9	3	7	3	n/a	n/a	n/a	n/a
197.1817382	1.600605195	1	44	1	9	3	8	3	n/a	n/a	n/a	n/a
198.7823434	1.600711336	1	45	1	9	3	9	3	n/a	n/a	n/a	n/a
200.3830547	1.600359192	1	46	1	9	3	10	3	n/a	n/a	n/a	n/a
201.9834139	1.600577676	1	47	1	9	3	11	3	n/a	n/a	n/a	n/a
203.5839916	1.600562348	1	48	1	9	3	12	3	n/a	n/a	n/a	n/a
205.1845539	1.600573098	1	49	1	3	4	1	1	9	n/a	205.7847585	n/a
206.785127	1.60052298	1	50	1	3	4	2	2	9	n/a	207.385344	n/a
208.38565	1.6005756	1	51	1	3	4	3	1	9	n/a	208.9858668	n/a
209.9862256	1.600521701	1	52	1	3	4	4	1	9	n/a	210.5864242	n/a
211.5867473	1.600642217	1	53	1	3	4	5	1	9	n/a	212.1869976	n/a
213.1873895	1.600539226	1	54	1	3	4	6	1	9	n/a	213.7875235	n/a
214.7879287	1.600410154	1	55	1	3	4	7	2	9	n/a	215.3882078	n/a
216.3883389	1.6006745	1	56	1	3	4	8	2	9	n/a	216.9887002	n/a
217.9890134	1.600521328	1	57	1	3	4	9	1	9	n/a	218.5892189	n/a
219.5895347	1.600564425	1	58	1	3	4	10	1	9	n/a	220.1897754	n/a
221.1900992	1.600593871	1	59	1	3	4	11	2	9	n/a	221.7905937	n/a
222.790693	1.600525579	1	60	1	3	4	12	2	9	n/a	223.3908777	n/a
224.3912186	1.600568773	1	61	1	3	4	13	2	9	n/a	224.9914168	n/a
225.9917874	1.600565875	1	62	1	3	4	14	2	9	n/a	226.5920205	n/a
227.5923533	1.60062295	1	63	1	3	4	15	2	9	n/a	228.1925668	n/a
229.1929762	1.600476278	1	64	1	3	4	16	2	9	n/a	229.7931189	n/a
230.7934525	1.60058792	1	65	1	3	4	17	1	9	n/a	231.3936779	n/a
232.3940404	1.600616869	1	66	1	3	4	18	2	9	n/a	232.9942204	n/a
233.9946573	1.600720461	1	67	1	3	4	19	1	9	n/a	234.59494	n/a
235.5953777	1.600323822	1	68	1	3	4	20	1	9	n/a	236.1952807	n/a
237.1957016	1.60057565	1	69	1	3	4	21	1	9	n/a	237.7959248	n/a
238.7962772	1.600517228	1	70	1	3	4	22	1	9	n/a	239.3964574	n/a
240.3967944	1.600557474	1	71	1	3	4	23	2	9	n/a	240.9971033	n/a
241.9973519	1.60060512	1	72	1	3	4	24	2	9	n/a	242.5975942	n/a
243.597957	1.600816978	1	73	1	9	5	1	3	n/a	n/a	n/a	n/a
245.198774	1.6005	1	74	1	9	5	2	3	n/a	n/a	n/a	n/a
246.799274	1.6002651	1	75	1	9	5	3	3	n/a	n/a	n/a	n/a
248.3995391	1.600573404	1	76	1	9	5	4	3	n/a	n/a	n/a	n/a
250.0001125	1.600586298	1	77	1	9	5	5	3	n/a	n/a	n/a	n/a
251.6006988	1.600588822	1	78	1	9	5	6	3	n/a	n/a	n/a	n/a
253.2012876	1.600544502	1	79	1	9	5	7	3	n/a	n/a	n/a	n/a
254.8018321	1.600584774	1	80	1	9	5	8	3	n/a	n/a	n/a	n/a
256.4024169	1.600547375	1	81	1	9	5	9	3	n/a	n/a	n/a	n/a
258.0029643	1.600525726	1	82	1	9	5	10	3	n/a	n/a	n/a	n/a
259.60349	1.600571474	1	83	1	9	5	11	3	n/a	n/a	n/a	n/a
261.2040615	1.6005795	1	84	1	9	5	12	3	n/a	n/a	n/a	n/a
262.804641	1.600596269	1	85	1	5	6	1	2	9	n/a	263.4048123	n/a
264.4052372	1.600490782	1	86	1	5	6	2	2	9	n/a	265.0053734	n/a
266.005728	1.600632744	1	87	1	5	6	3	1	9	n/a	266.6059634	n/a
267.6063608	1.600505829	1	88	1	5	6	4	1	9	n/a	268.2064877	n/a
269.2068666	1.600542502	1	89	1	5	6	5	2	9	n/a	269.8070554	n/a
270.8074091	1.600557275	1	90	1	5	6	6	2	9	n/a	271.407636	n/a
272.4079664	1.600566474	1	91	1	5	6	7	2	9	n/a	273.0082148	n/a
274.0085328	1.60066714	1	92	1	5	6	8	1	9	n/a	274.6087465	n/a
275.6092	1.60060541	1	93	1	5	6	9	1	9	n/a	276.209468	n/a
277.2098054	1.600384626	1	94	1	5	6	10	2	9	n/a	277.8097714	n/a
278.81019	1.600572572	1	95	1	5	6	11	2	9	n/a	279.410393	n/a
280.4107626	1.600550252	1	96	1	5	6	12	1	9	n/a	281.0110899	n/a
282.0113129	1.6005482	1	97	1	5	6	13	2	9	n/a	282.6115359	n/a
283.6118611	1.600551651	1	98	1	5	6	14	2	9	n/a	284.2121137	n/a
285.2124127	1.600538502	1	99	1	5	6	15	1	9	n/a	285.8126793	n/a
286.8129512	1.600593323	1	100	1	5	6	16	1	9	n/a	287.413206	n/a
288.4135445	1.600534479	1	101	1	5	6	17	2	9	n/a	289.0137534	n/a
290.014079	1.60057672	1	102	1	5	6	18	1	9	n/a	290.6143427	n/a
291.6146557	1.600555826	1	103	1	5	6	19	2	9	n/a	292.214907	n/a
293.2152116	1.600573548	1	104	1	5	6	20	1	9	n/a	293.8154279	n/a
294.8157851	1.600619001	1	105	1	5	6	21	1	9	n/a	295.4159846	n/a
296.4164041	1.6004163	1	106	1	5	6	22	2	9	n/a	297.0165437	n/a
298.0168204	1.600636102	1	107	1	5	6	23	2	9	n/a	298.6170791	n/a
299.6174565	1.600646513	1	108	1	5	6	24	1	9	n/a	300.2176532	n/a
301.218103	1.60069661	1	109	1	9	7	1	3	n/a	n/a	n/a	n/a
302.8187996	1.600338375	1	110	1	9	7	2	3	n/a	n/a	n/a	n/a
304.419138	1.6006045	1	111	1	9	7	3	3	n/a	n/a	n/a	n/a
306.0197425	1.6005539	1	112	1	9	7	4	3	n/a	n/a	n/a	n/a
307.6202964	1.600576566	1	113	1	9	7	5	3	n/a	n/a	n/a	n/a
309.220873	1.60070811	1	114	1	9	7	6	3	n/a	n/a	n/a	n/a
310.8215811	1.600313276	1	115	1	9	7	7	3	n/a	n/a	n/a	n/a
312.4218944	1.600548601	1	116	1	9	7	8	3	n/a	n/a	n/a	n/a
314.022443	1.600817348	1	117	1	9	7	9	3	n/a	n/a	n/a	n/a
315.6232603	1.600297501	1	118	1	9	7	10	3	n/a	n/a	n/a	n/a
317.2235578	1.600566848	1	119	1	9	7	11	3	n/a	n/a	n/a	n/a
318.8241247	1.600546701	1	120	1	9	7	12	3	n/a	n/a	n/a	n/a
320.4246714	1.600618369	1	121	1	7	8	1	2	9	n/a	321.0248666	n/a
322.0252897	1.600714786	1	122	1	7	8	2	2	9	n/a	322.625537	n/a
323.6260045	1.600385594	1	123	1	7	8	3	2	9	n/a	324.2261146	n/a
325.2263901	1.600519075	1	124	1	7	8	4	1	9	n/a	325.8265254	n/a
326.8269092	1.600561725	1	125	1	7	8	5	2	9	n/a	327.4271413	n/a
328.4274709	1.600577623	1	126	1	7	8	6	2	9	n/a	329.0276985	n/a
330.0280485	1.600561125	1	127	1	7	8	7	1	9	n/a	330.6282614	n/a
331.6286096	1.600644542	1	128	1	7	8	8	1	9	n/a	332.2288082	n/a
333.2292542	1.600565174	1	129	1	7	8	9	1	9	n/a	333.8293765	n/a
334.8298194	1.600575036	1	130	1	7	8	10	1	9	n/a	335.4300928	n/a
336.4303944	1.600253	1	131	1	7	8	11	2	9	n/a	337.0305322	n/a
338.0306474	1.600713251	1	132	1	7	8	12	2	9	n/a	338.63086	n/a
339.6313607	1.600580023	1	133	1	7	8	13	1	9	n/a	340.2315486	n/a
341.2319407	1.600476026	1	134	1	7	8	14	1	9	n/a	341.8322997	n/a
342.8324167	1.600627425	1	135	1	7	8	15	2	9	n/a	343.4327093	n/a
344.4330441	1.600568498	1	136	1	7	8	16	1	9	n/a	345.0332622	n/a
346.0336126	1.600569899	1	137	1	7	8	17	2	9	n/a	346.6338213	n/a
347.6341825	1.600597372	1	138	1	7	8	18	1	9	n/a	348.2343597	n/a
349.2347799	1.600705035	1	139	1	7	8	19	2	9	n/a	349.8350382	n/a
350.8354849	1.600225471	1	140	1	7	8	20	2	9	n/a	351.4355762	n/a
352.4357104	1.600668676	1	141	1	7	8	21	2	9	n/a	353.0359542	n/a
354.0363791	1.600550076	1	142	1	7	8	22	1	9	n/a	354.6366021	n/a
355.6369292	1.600610345	1	143	1	7	8	23	1	9	n/a	356.2371979	n/a
357.2375395	1.6005483	1	144	1	7	8	24	2	9	n/a	357.83772	n/a
358.8380878	1.600405402	1	145	1	9	9	1	3	n/a	n/a	n/a	n/a
360.4384932	1.600726421	1	146	1	9	9	2	3	n/a	n/a	n/a	n/a
362.0392196	1.60050603	1	147	1	9	9	3	3	n/a	n/a	n/a	n/a
363.6397257	1.600636217	1	148	1	9	9	4	3	n/a	n/a	n/a	n/a
365.2403619	1.600709485	1	149	1	9	9	5	3	n/a	n/a	n/a	n/a
366.8410714	1.600218147	1	150	1	9	9	6	3	n/a	n/a	n/a	n/a
368.4412895	1.600652803	1	151	1	9	9	7	3	n/a	n/a	n/a	n/a
370.0419423	1.600582322	1	152	1	9	9	8	3	n/a	n/a	n/a	n/a
371.6425246	1.600573049	1	153	1	9	9	9	3	n/a	n/a	n/a	n/a
373.2430977	1.600535352	1	154	1	9	9	10	3	n/a	n/a	n/a	n/a
374.843633	1.600657274	1	155	1	9	9	11	3	n/a	n/a	n/a	n/a
376.4442903	1.600485673	1	156	1	9	9	12	3	n/a	n/a	n/a	n/a
