onset	duration	run_number	trial_number	att_task	bar_direction	bar_period	bar_step	stim_noise_ori	stim_stair_val	response_val	probe_time	reaction_time
791750.2622	1.599930883	1	1	1	9	1	1	3	n/a	n/a	n/a	n/a
791751.8621	1.600197581	1	2	1	9	1	2	3	n/a	n/a	n/a	n/a
791753.4623	1.600239868	1	3	1	9	1	3	3	n/a	n/a	n/a	n/a
791755.0625	1.600254626	1	4	1	9	1	4	3	n/a	n/a	n/a	n/a
791756.6628	1.600250245	1	5	1	9	1	5	3	n/a	n/a	n/a	n/a
791758.263	1.60028718	1	6	1	9	1	6	3	n/a	n/a	n/a	n/a
791759.8633	1.600279605	1	7	1	9	1	7	3	n/a	n/a	n/a	n/a
791761.4636	1.600147885	1	8	1	9	1	8	3	n/a	n/a	n/a	n/a
791763.0638	1.600264709	1	9	1	9	1	9	3	n/a	n/a	n/a	n/a
791764.664	1.600226015	1	10	1	9	1	10	3	n/a	n/a	n/a	n/a
791766.2642	1.600238306	1	11	1	9	1	11	3	n/a	n/a	n/a	n/a
791767.8645	1.600242114	1	12	1	9	1	12	3	n/a	n/a	n/a	n/a
791769.4647	1.600352472	1	13	1	1	2	1	1	9	n/a	791770.0648	n/a
791771.0651	1.600178735	1	14	1	1	2	2	2	9	n/a	791771.665	n/a
791772.6653	1.600282154	1	15	1	1	2	3	1	9	n/a	791773.2654	n/a
791774.2655	1.600274054	1	16	1	1	2	4	1	9	n/a	791774.8656	n/a
791775.8658	1.600243157	1	17	1	1	2	5	2	9	n/a	791776.4659	n/a
791777.4661	1.600112812	1	18	1	1	2	6	2	9	n/a	791778.0661	n/a
791779.0662	1.600247243	1	19	1	1	2	7	1	9	n/a	791779.6663	n/a
791780.6664	1.600249224	1	20	1	1	2	8	2	9	n/a	791781.2665	n/a
791782.2667	1.600263142	1	21	1	1	2	9	2	9	n/a	791782.8668	n/a
791783.8669	1.600251569	1	22	1	1	2	10	1	9	n/a	791784.467	n/a
791785.4672	1.600332516	1	23	1	1	2	11	1	9	n/a	791786.0673	n/a
791787.0675	1.600163892	1	24	1	1	2	12	1	9	n/a	791787.6675	n/a
791788.6677	1.600239235	1	25	1	1	2	13	2	9	n/a	791789.2678	n/a
791790.2679	1.600250886	1	26	1	1	2	14	1	9	n/a	791790.868	n/a
791791.8682	1.600242916	1	27	1	1	2	15	2	9	n/a	791792.4683	n/a
791793.4684	1.600240004	1	28	1	1	2	16	1	9	n/a	791794.0685	n/a
791795.0687	1.60023707	1	29	1	1	2	17	1	9	n/a	791795.6687	n/a
791796.6689	1.600098282	1	30	1	1	2	18	2	9	n/a	791797.2689	n/a
791798.269	1.600386438	1	31	1	1	2	19	2	9	n/a	791798.8692	n/a
791799.8694	1.600264606	1	32	1	1	2	20	1	9	n/a	791800.4695	n/a
791801.4696	1.600328808	1	33	1	1	2	21	1	9	n/a	791802.0697	n/a
791803.07	1.60014836	1	34	1	1	2	22	2	9	n/a	791803.67	n/a
791804.6701	1.600247137	1	35	1	1	2	23	2	9	n/a	791805.2702	n/a
791806.2704	1.600241998	1	36	1	1	2	24	2	9	n/a	791806.8705	n/a
791807.8706	1.600247637	1	37	1	9	3	1	3	n/a	n/a	n/a	n/a
791809.4709	1.600240014	1	38	1	9	3	2	3	n/a	n/a	n/a	n/a
791811.0711	1.600245192	1	39	1	9	3	3	3	n/a	n/a	n/a	n/a
791812.6713	1.600277257	1	40	1	9	3	4	3	n/a	n/a	n/a	n/a
791814.2716	1.600237181	1	41	1	9	3	5	3	n/a	n/a	n/a	n/a
791815.8719	1.600304252	1	42	1	9	3	6	3	n/a	n/a	n/a	n/a
791817.4722	1.60025661	1	43	1	9	3	7	3	n/a	n/a	n/a	n/a
791819.0724	1.600201279	1	44	1	9	3	8	3	n/a	n/a	n/a	n/a
791820.6726	1.600188767	1	45	1	9	3	9	3	n/a	n/a	n/a	n/a
791822.2728	1.600242176	1	46	1	9	3	10	3	n/a	n/a	n/a	n/a
791823.873	1.600238129	1	47	1	9	3	11	3	n/a	n/a	n/a	n/a
791825.4733	1.600236933	1	48	1	9	3	12	3	n/a	n/a	n/a	n/a
791827.0735	1.600238373	1	49	1	3	4	1	1	9	n/a	791827.6736	n/a
791828.6738	1.600262312	1	50	1	3	4	2	1	9	n/a	791829.2739	n/a
791830.274	1.60841216	1	51	1	3	4	3	2	9	n/a	791830.8739	n/a
791831.8824	1.6002496	1	52	1	3	4	4	1	9	n/a	791832.4827	n/a
791833.4827	1.600517903	1	53	1	3	4	5	1	9	n/a	791834.083	n/a
791835.0832	1.60010344	1	54	1	3	4	6	1	9	n/a	791835.6833	n/a
791836.6833	1.600239927	1	55	1	3	4	7	2	9	n/a	791837.2834	n/a
791838.2835	1.600276723	1	56	1	3	4	8	1	9	n/a	791838.8836	n/a
791839.8838	1.60029735	1	57	1	3	4	9	2	9	n/a	791840.4839	n/a
791841.4841	1.600286991	1	58	1	3	4	10	2	9	n/a	791842.0842	n/a
791843.0844	1.600094604	1	59	1	3	4	11	1	9	n/a	791843.6845	n/a
791844.6845	1.600274834	1	60	1	3	4	12	1	9	n/a	791845.2846	n/a
791846.2848	1.600310207	1	61	1	3	4	13	1	9	n/a	791846.8849	n/a
791847.8851	1.600292376	1	62	1	3	4	14	1	9	n/a	791848.4852	n/a
791849.4854	1.600107047	1	63	1	3	4	15	2	9	n/a	791850.0855	n/a
791851.0855	1.600270571	1	64	1	3	4	16	2	9	n/a	791851.6856	n/a
791852.6858	1.600237616	1	65	1	3	4	17	2	9	n/a	791853.2859	n/a
791854.286	1.600239965	1	66	1	3	4	18	2	9	n/a	791854.8861	n/a
791855.8862	1.600266371	1	67	1	3	4	19	1	9	n/a	791856.4863	n/a
791857.4865	1.600217188	1	68	1	3	4	20	1	9	n/a	791858.0866	n/a
791859.0867	1.600351984	1	69	1	3	4	21	2	9	n/a	791859.6868	n/a
791860.6871	1.600147744	1	70	1	3	4	22	1	9	n/a	791861.287	n/a
791862.2872	1.600273566	1	71	1	3	4	23	2	9	n/a	791862.8873	n/a
791863.8875	1.600263488	1	72	1	3	4	24	2	9	n/a	791864.4876	n/a
791865.4878	1.600151959	1	73	1	9	5	1	3	n/a	n/a	n/a	n/a
791867.0879	1.600281242	1	74	1	9	5	2	3	n/a	n/a	n/a	n/a
791868.6882	1.600222306	1	75	1	9	5	3	3	n/a	n/a	n/a	n/a
791870.2884	1.600253559	1	76	1	9	5	4	3	n/a	n/a	n/a	n/a
791871.8887	1.600255906	1	77	1	9	5	5	3	n/a	n/a	n/a	n/a
791873.4889	1.600240196	1	78	1	9	5	6	3	n/a	n/a	n/a	n/a
791875.0892	1.600244359	1	79	1	9	5	7	3	n/a	n/a	n/a	n/a
791876.6894	1.600244194	1	80	1	9	5	8	3	n/a	n/a	n/a	n/a
791878.2896	1.600234009	1	81	1	9	5	9	3	n/a	n/a	n/a	n/a
791879.8899	1.60026827	1	82	1	9	5	10	3	n/a	n/a	n/a	n/a
791881.4901	1.600315726	1	83	1	9	5	11	3	n/a	n/a	n/a	n/a
791883.0905	1.600260248	1	84	1	9	5	12	3	n/a	n/a	n/a	n/a
791884.6907	1.600180692	1	85	1	5	6	1	1	9	n/a	791885.2908	n/a
791886.2909	1.600156735	1	86	1	5	6	2	1	9	n/a	791886.8909	n/a
791887.8911	1.600236476	1	87	1	5	6	3	2	9	n/a	791888.4912	n/a
791889.4913	1.60026021	1	88	1	5	6	4	2	9	n/a	791890.0915	n/a
791891.0916	1.600238339	1	89	1	5	6	5	2	9	n/a	791891.6917	n/a
791892.6918	1.600273799	1	90	1	5	6	6	1	9	n/a	791893.2919	n/a
791894.2921	1.600199865	1	91	1	5	6	7	1	9	n/a	791894.8922	n/a
791895.8923	1.600337291	1	92	1	5	6	8	1	9	n/a	791896.4924	n/a
791897.4926	1.600188079	1	93	1	5	6	9	1	9	n/a	791898.0926	n/a
791899.0928	1.600248055	1	94	1	5	6	10	1	9	n/a	791899.6929	n/a
791900.693	1.600221108	1	95	1	5	6	11	1	9	n/a	791901.2931	n/a
791902.2933	1.600274506	1	96	1	5	6	12	1	9	n/a	791902.8934	n/a
791903.8935	1.600296636	1	97	1	5	6	13	2	9	n/a	791904.4937	n/a
791905.4938	1.600278329	1	98	1	5	6	14	1	9	n/a	791906.0939	n/a
791907.0941	1.60010639	1	99	1	5	6	15	1	9	n/a	791907.6942	n/a
791908.6942	1.600191618	1	100	1	5	6	16	2	9	n/a	791909.2943	n/a
791910.2944	1.600305504	1	101	1	5	6	17	1	9	n/a	791910.8946	n/a
791911.8947	1.600250514	1	102	1	5	6	18	1	9	n/a	791912.4948	n/a
791913.495	1.600250632	1	103	1	5	6	19	2	9	n/a	791914.095	n/a
791915.0952	1.600244208	1	104	1	5	6	20	1	9	n/a	791915.6953	n/a
791916.6955	1.600224625	1	105	1	5	6	21	1	9	n/a	791917.2956	n/a
791918.2957	1.600264253	1	106	1	5	6	22	1	9	n/a	791918.8959	n/a
791919.896	1.600233178	1	107	1	5	6	23	2	9	n/a	791920.496	n/a
791921.4962	1.600248978	1	108	1	5	6	24	1	9	n/a	791922.0963	n/a
791923.0964	1.600250781	1	109	1	9	7	1	3	n/a	n/a	n/a	n/a
791924.6967	1.600278552	1	110	1	9	7	2	3	n/a	n/a	n/a	n/a
791926.297	1.600304229	1	111	1	9	7	3	3	n/a	n/a	n/a	n/a
791927.8973	1.600108567	1	112	1	9	7	4	3	n/a	n/a	n/a	n/a
791929.4974	1.600266049	1	113	1	9	7	5	3	n/a	n/a	n/a	n/a
791931.0976	1.600242916	1	114	1	9	7	6	3	n/a	n/a	n/a	n/a
791932.6979	1.600350405	1	115	1	9	7	7	3	n/a	n/a	n/a	n/a
791934.2982	1.600105222	1	116	1	9	7	8	3	n/a	n/a	n/a	n/a
791935.8983	1.600276787	1	117	1	9	7	9	3	n/a	n/a	n/a	n/a
791937.4986	1.600191924	1	118	1	9	7	10	3	n/a	n/a	n/a	n/a
791939.0988	1.600293694	1	119	1	9	7	11	3	n/a	n/a	n/a	n/a
791940.6991	1.600239025	1	120	1	9	7	12	3	n/a	n/a	n/a	n/a
791942.2993	1.600254885	1	121	1	7	8	1	1	9	n/a	791942.8994	n/a
791943.8996	1.600245108	1	122	1	7	8	2	1	9	n/a	791944.4997	n/a
791945.4998	1.600226046	1	123	1	7	8	3	2	9	n/a	791946.0999	n/a
791947.1001	1.600235416	1	124	1	7	8	4	1	9	n/a	791947.7002	n/a
791948.7003	1.600253665	1	125	1	7	8	5	2	9	n/a	791949.3005	n/a
791950.3006	1.600238692	1	126	1	7	8	6	2	9	n/a	791950.9006	n/a
791951.9008	1.600259352	1	127	1	7	8	7	2	9	n/a	791952.5009	n/a
791953.5011	1.600287523	1	128	1	7	8	8	1	9	n/a	791954.1012	n/a
791955.1013	1.600284372	1	129	1	7	8	9	2	9	n/a	791955.7015	n/a
791956.7016	1.600132224	1	130	1	7	8	10	1	9	n/a	791957.3014	n/a
791958.3018	1.600236271	1	131	1	7	8	11	1	9	n/a	791958.9018	n/a
791959.902	1.600259884	1	132	1	7	8	12	2	9	n/a	791960.5021	n/a
791961.5023	1.600234845	1	133	1	7	8	13	1	9	n/a	791962.1023	n/a
791963.1025	1.600369931	1	134	1	7	8	14	2	9	n/a	791963.7026	n/a
791964.7029	1.600203776	1	135	1	7	8	15	1	9	n/a	791965.3028	n/a
791966.3031	1.60018764	1	136	1	7	8	16	1	9	n/a	791966.9031	n/a
791967.9033	1.600278707	1	137	1	7	8	17	1	9	n/a	791968.5034	n/a
791969.5035	1.600295607	1	138	1	7	8	18	1	9	n/a	791970.1037	n/a
791971.1038	1.600167925	1	139	1	7	8	19	2	9	n/a	791971.7039	n/a
791972.704	1.600183632	1	140	1	7	8	20	2	9	n/a	791973.3042	n/a
791974.3042	1.600240647	1	141	1	7	8	21	1	9	n/a	791974.9043	n/a
791975.9044	1.60026542	1	142	1	7	8	22	1	9	n/a	791976.5045	n/a
791977.5047	1.60024834	1	143	1	7	8	23	2	9	n/a	791978.1048	n/a
791979.1049	1.600269419	1	144	1	7	8	24	1	9	n/a	791979.7051	n/a
791980.7052	1.60020991	1	145	1	9	9	1	3	n/a	n/a	n/a	n/a
791982.3054	1.60025153	1	146	1	9	9	2	3	n/a	n/a	n/a	n/a
791983.9057	1.600232022	1	147	1	9	9	3	3	n/a	n/a	n/a	n/a
791985.5059	1.60026015	1	148	1	9	9	4	3	n/a	n/a	n/a	n/a
791987.1062	1.600236449	1	149	1	9	9	5	3	n/a	n/a	n/a	n/a
791988.7064	1.600243092	1	150	1	9	9	6	3	n/a	n/a	n/a	n/a
791990.3066	1.600270224	1	151	1	9	9	7	3	n/a	n/a	n/a	n/a
791991.9069	1.600236168	1	152	1	9	9	8	3	n/a	n/a	n/a	n/a
791993.5071	1.600244559	1	153	1	9	9	9	3	n/a	n/a	n/a	n/a
791995.1074	1.600240696	1	154	1	9	9	10	3	n/a	n/a	n/a	n/a
791996.7076	1.600257218	1	155	1	9	9	11	3	n/a	n/a	n/a	n/a
791998.3079	1.600237921	1	156	1	9	9	12	3	n/a	n/a	n/a	n/a
