onset	duration	run_number	trial_number	att_task	bar_direction	bar_period	bar_step	stim_noise_ori	stim_stair_val	response_val	probe_time	reaction_time
516419.2407	1.601267542	2	1	1	9	1	1	3	n/a	n/a	n/a	n/a
516420.842	1.600350421	2	2	1	9	1	2	3	n/a	n/a	n/a	n/a
516422.4423	1.600129512	2	3	1	9	1	3	3	n/a	n/a	n/a	n/a
516424.0424	1.600228024	2	4	1	9	1	4	3	n/a	n/a	n/a	n/a
516425.6427	1.600354397	2	5	1	9	1	5	3	n/a	n/a	n/a	n/a
516427.243	1.600134141	2	6	1	9	1	6	3	n/a	n/a	n/a	n/a
516428.8432	1.600235762	2	7	1	9	1	7	3	n/a	n/a	n/a	n/a
516430.4434	1.600240315	2	8	1	9	1	8	3	n/a	n/a	n/a	n/a
516432.0436	1.60023382	2	9	1	9	1	9	3	n/a	n/a	n/a	n/a
516433.6439	1.600366316	2	10	1	9	1	10	3	n/a	n/a	n/a	n/a
516435.2442	1.600080838	2	11	1	9	1	11	3	n/a	n/a	n/a	n/a
516436.8443	1.600262532	2	12	1	9	1	12	3	n/a	n/a	n/a	n/a
516438.4446	1.600421288	2	13	1	1	2	1	1	3	n/a	516439.0447	n/a
516440.045	1.600126935	2	14	1	1	2	2	1	3	0	516440.645	0.313147123
516441.6451	1.60028026	2	15	1	1	2	3	1	4	0	516442.2452	0.3139864975
516443.2454	1.600140241	2	16	1	1	2	4	1	5	1	516443.8455	0.6106996982
516444.8455	1.600261379	2	17	1	1	2	5	1	5	1	516445.4456	0.7084911814
516446.4458	1.600282721	2	18	1	1	2	6	2	5	1	516447.0459	0.5056037321
516448.0461	1.600265288	2	19	1	1	2	7	1	4	n/a	516448.6462	n/a
516449.6464	1.600123012	2	20	1	1	2	8	2	4	n/a	516450.2464	n/a
516451.2465	1.600234934	2	21	1	1	2	9	2	4	n/a	516451.8466	n/a
516452.8467	1.600245862	2	22	1	1	2	10	1	4	n/a	516453.4468	n/a
516454.447	1.600242437	2	23	1	1	2	11	1	4	1	516455.0471	0.9095019016
516456.0472	1.600385227	2	24	1	1	2	12	1	4	1	516456.6473	0.9123211143
516457.6476	1.600065598	2	25	1	1	2	13	2	4	1	516458.2474	0.9072955964
516459.2476	1.600267166	2	26	1	1	2	14	2	3	1	516459.8478	0.8096811649
516460.8479	1.600281949	2	27	1	1	2	15	2	3	0	516461.448	0.805599254
516462.4482	1.600265344	2	28	1	1	2	16	1	4	n/a	516463.0483	n/a
516464.0485	1.600284599	2	29	1	1	2	17	1	4	n/a	516464.6486	n/a
516465.6487	1.600104533	2	30	1	1	2	18	2	4	1	516466.2487	0.6140063563
516467.2489	1.600242957	2	31	1	1	2	19	2	4	n/a	516467.849	n/a
516468.8491	1.600273487	2	32	1	1	2	20	1	4	0	516469.4492	0.7128061808
516470.4494	1.600200565	2	33	1	1	2	21	2	5	n/a	516471.0494	n/a
516472.0496	1.600247185	2	34	1	1	2	22	1	5	1	516472.6497	0.7090945856
516473.6498	1.600236166	2	35	1	1	2	23	1	5	1	516474.2499	0.8098499094
516475.2501	1.600244138	2	36	1	1	2	24	2	5	n/a	516475.8501	n/a
516476.8503	1.600234986	2	37	1	9	3	1	3	n/a	n/a	n/a	n/a
516478.4505	1.600312652	2	38	1	9	3	2	3	n/a	n/a	n/a	n/a
516480.0508	1.600211159	2	39	1	9	3	3	3	n/a	n/a	n/a	n/a
516481.6511	1.600288454	2	40	1	9	3	4	3	n/a	n/a	n/a	n/a
516483.2513	1.600246095	2	41	1	9	3	5	3	n/a	n/a	n/a	n/a
516484.8516	1.600100166	2	42	1	9	3	6	3	n/a	n/a	n/a	n/a
516486.4517	1.600383971	2	43	1	9	3	7	3	n/a	n/a	n/a	n/a
516488.0521	1.600123937	2	44	1	9	3	8	3	n/a	n/a	n/a	n/a
516489.6522	1.600237542	2	45	1	9	3	9	3	n/a	n/a	n/a	n/a
516491.2524	1.600235566	2	46	1	9	3	10	3	n/a	n/a	n/a	n/a
516492.8527	1.600240319	2	47	1	9	3	11	3	n/a	n/a	n/a	n/a
516494.4529	1.600235948	2	48	1	9	3	12	3	n/a	n/a	n/a	n/a
516496.0531	1.600240957	2	49	1	3	4	1	1	5	n/a	516496.6533	n/a
516497.6534	1.600346555	2	50	1	3	4	2	2	5	1	516498.2535	0.6128967142
516499.2537	1.600131445	2	51	1	3	4	3	1	4	1	516499.8537	0.9077012758
516500.8539	1.600235985	2	52	1	3	4	4	1	4	1	516501.454	0.9119934094
516502.4541	1.600295683	2	53	1	3	4	5	1	4	n/a	516503.0542	n/a
516504.0544	1.600278449	2	54	1	3	4	6	1	4	1	516504.6545	-0.0948892904
516505.6547	1.600263051	2	55	1	3	4	7	1	3	n/a	516506.2548	n/a
516507.2549	1.600096305	2	56	1	3	4	8	1	3	n/a	516507.8549	n/a
516508.855	1.600241671	2	57	1	3	4	9	2	3	n/a	516509.4551	n/a
516510.4553	1.600253704	2	58	1	3	4	10	1	3	n/a	516511.0554	n/a
516512.0555	1.600241099	2	59	1	3	4	11	1	3	n/a	516512.6556	n/a
516513.6558	1.600239696	2	60	1	3	4	12	1	3	n/a	516514.2559	n/a
516515.256	1.600245732	2	61	1	3	4	13	1	3	n/a	516515.8561	n/a
516516.8563	1.600223859	2	62	1	3	4	14	2	3	n/a	516517.4563	n/a
516518.4565	1.600253414	2	63	1	3	4	15	2	3	1	516519.0566	0.8131477234
516520.0567	1.60021392	2	64	1	3	4	16	2	3	0	516520.6569	0.6069255932
516521.6569	1.600255899	2	65	1	3	4	17	1	4	1	516522.2571	0.9133383618
516523.2572	1.600256984	2	66	1	3	4	18	1	4	n/a	516523.8573	n/a
516524.8575	1.600285092	2	67	1	3	4	19	2	4	1	516525.4576	0.6116597266
516526.4577	1.600296269	2	68	1	3	4	20	2	4	n/a	516527.0579	n/a
516528.058	1.600233019	2	69	1	3	4	21	1	4	1	516528.6581	0.7068579743
516529.6583	1.600112355	2	70	1	3	4	22	2	3	1	516530.2582	0.5128892264
516531.2584	1.600238544	2	71	1	3	4	23	1	3	n/a	516531.8585	n/a
516532.8586	1.600240123	2	72	1	3	4	24	2	3	1	516533.4587	0.7115383326
516534.4589	1.600250085	2	73	1	9	5	1	3	n/a	n/a	n/a	n/a
516536.0591	1.600365494	2	74	1	9	5	2	3	n/a	n/a	n/a	n/a
516537.6595	1.600109529	2	75	1	9	5	3	3	n/a	n/a	n/a	n/a
516539.2596	1.600233711	2	76	1	9	5	4	3	n/a	n/a	n/a	n/a
516540.8598	1.600243752	2	77	1	9	5	5	3	n/a	n/a	n/a	n/a
516542.4601	1.600234087	2	78	1	9	5	6	3	n/a	n/a	n/a	n/a
516544.0603	1.600243923	2	79	1	9	5	7	3	n/a	n/a	n/a	n/a
516545.6605	1.600249105	2	80	1	9	5	8	3	n/a	n/a	n/a	n/a
516547.2608	1.600223295	2	81	1	9	5	9	3	n/a	n/a	n/a	n/a
516548.861	1.600238486	2	82	1	9	5	10	3	n/a	n/a	n/a	n/a
516550.4613	1.600260267	2	83	1	9	5	11	3	n/a	n/a	n/a	n/a
516552.0615	1.60026571	2	84	1	9	5	12	3	n/a	n/a	n/a	n/a
516553.6618	1.60028243	2	85	1	5	6	1	2	3	n/a	516554.2619	n/a
516555.2621	1.600253809	2	86	1	5	6	2	2	3	1	516555.8622	0.8070717743
516556.8623	1.600122941	2	87	1	5	6	3	2	2	1	516557.4624	0.7131365365
516558.4624	1.600224715	2	88	1	5	6	4	1	2	1	516559.0625	0.8121699563
516560.0627	1.600258332	2	89	1	5	6	5	2	2	1	516560.6628	0.9133583271
516561.6629	1.60021963	2	90	1	5	6	6	2	2	n/a	516562.263	n/a
516563.2631	1.600367481	2	91	1	5	6	7	1	2	n/a	516563.8632	n/a
516564.8635	1.600246448	2	92	1	5	6	8	1	2	n/a	516565.4635	n/a
516566.4638	1.600155048	2	93	1	5	6	9	2	2	1	516567.0637	0.8132705485
516568.0639	1.600290107	2	94	1	5	6	10	2	2	1	516568.664	0.8059295986
516569.6642	1.600268951	2	95	1	5	6	11	1	2	n/a	516570.2643	n/a
516571.2645	1.600243976	2	96	1	5	6	12	2	2	1	516571.8646	0.1114089981
516572.8647	1.600231357	2	97	1	5	6	13	1	2	n/a	516573.4648	n/a
516574.4649	1.600234894	2	98	1	5	6	14	2	2	n/a	516575.065	n/a
516576.0652	1.600247024	2	99	1	5	6	15	2	2	1	516576.6653	0.6055058841
516577.6654	1.600113337	2	100	1	5	6	16	2	2	1	516578.2654	0.8141694173
516579.2655	1.600248947	2	101	1	5	6	17	2	2	n/a	516579.8657	n/a
516580.8658	1.600230896	2	102	1	5	6	18	1	2	n/a	516581.4659	n/a
516582.466	1.600241119	2	103	1	5	6	19	2	2	n/a	516583.0661	n/a
516584.0663	1.600245424	2	104	1	5	6	20	2	2	n/a	516584.6664	n/a
516585.6665	1.600241465	2	105	1	5	6	21	1	2	1	516586.2666	0.5124509857
516587.2668	1.600235287	2	106	1	5	6	22	2	2	n/a	516587.8668	n/a
516588.867	1.600293582	2	107	1	5	6	23	2	2	1	516589.4671	0.9123611241
516590.4673	1.600169809	2	108	1	5	6	24	2	2	1	516591.0673	0.909154724
516592.0675	1.600259929	2	109	1	9	7	1	3	n/a	n/a	n/a	n/a
516593.6677	1.600223433	2	110	1	9	7	2	3	n/a	n/a	n/a	n/a
516595.2679	1.600231315	2	111	1	9	7	3	3	n/a	n/a	n/a	n/a
516596.8682	1.600240382	2	112	1	9	7	4	3	n/a	n/a	n/a	n/a
516598.4684	1.600241543	2	113	1	9	7	5	3	n/a	n/a	n/a	n/a
516600.0686	1.600236571	2	114	1	9	7	6	3	n/a	n/a	n/a	n/a
516601.6689	1.600245713	2	115	1	9	7	7	3	n/a	n/a	n/a	n/a
516603.2691	1.600416364	2	116	1	9	7	8	3	n/a	n/a	n/a	n/a
516604.8695	1.600050461	2	117	1	9	7	9	3	n/a	n/a	n/a	n/a
516606.4696	1.600245933	2	118	1	9	7	10	3	n/a	n/a	n/a	n/a
516608.0698	1.600240562	2	119	1	9	7	11	3	n/a	n/a	n/a	n/a
516609.6701	1.60028663	2	120	1	9	7	12	3	n/a	n/a	n/a	n/a
516611.2704	1.60028523	2	121	1	7	8	1	1	2	1	516611.8705	0.2130776145
516612.8707	1.600253909	2	122	1	7	8	2	1	2	0	516613.4708	0.4075521267
516614.4709	1.600115037	2	123	1	7	8	3	1	3	0	516615.071	0.9094307463
516616.071	1.600241685	2	124	1	7	8	4	1	4	1	516616.6711	0.8054546088
516617.6713	1.600220182	2	125	1	7	8	5	1	4	n/a	516618.2714	n/a
516619.2715	1.600257527	2	126	1	7	8	6	1	4	1	516619.8716	0.7129831837
516620.8717	1.600240929	2	127	1	7	8	7	2	4	1	516621.4718	0.9131880918
516622.472	1.600252218	2	128	1	7	8	8	2	3	n/a	516623.0721	n/a
516624.0722	1.600237948	2	129	1	7	8	9	2	3	1	516624.6723	0.6126048661
516625.6725	1.600228696	2	130	1	7	8	10	2	3	1	516626.2726	0.9102732192
516627.2727	1.600251822	2	131	1	7	8	11	2	3	1	516627.8728	0.6133555351
516628.873	1.600220345	2	132	1	7	8	12	2	2	n/a	516629.473	n/a
516630.4732	1.600242766	2	133	1	7	8	13	2	2	n/a	516631.0733	n/a
516632.0734	1.60024441	2	134	1	7	8	14	2	2	n/a	516632.6735	n/a
516633.6737	1.600261148	2	135	1	7	8	15	1	2	n/a	516634.2738	n/a
516635.2739	1.60022612	2	136	1	7	8	16	2	2	n/a	516635.874	n/a
516636.8741	1.600220281	2	137	1	7	8	17	2	2	1	516637.4742	0.6131542576
516638.4744	1.600248694	2	138	1	7	8	18	1	2	n/a	516639.0745	n/a
516640.0746	1.600242448	2	139	1	7	8	19	1	2	n/a	516640.6747	n/a
516641.6749	1.600228457	2	140	1	7	8	20	2	2	1	516642.275	0.5130474589
516643.2751	1.600243057	2	141	1	7	8	21	2	2	n/a	516643.8752	n/a
516644.8753	1.6002383	2	142	1	7	8	22	2	2	n/a	516645.4754	n/a
516646.4756	1.600233443	2	143	1	7	8	23	2	2	n/a	516647.0756	n/a
516648.0758	1.600258576	2	144	1	7	8	24	2	2	n/a	516648.6759	n/a
516649.6761	1.600338822	2	145	1	9	9	1	3	n/a	n/a	n/a	n/a
516651.2764	1.600141606	2	146	1	9	9	2	3	n/a	n/a	n/a	n/a
516652.8765	1.600286602	2	147	1	9	9	3	3	n/a	n/a	n/a	n/a
516654.4768	1.600289407	2	148	1	9	9	4	3	n/a	n/a	n/a	n/a
516656.0771	1.600113713	2	149	1	9	9	5	3	n/a	n/a	n/a	n/a
516657.6772	1.600269574	2	150	1	9	9	6	3	n/a	n/a	n/a	n/a
516659.2775	1.600283126	2	151	1	9	9	7	3	n/a	n/a	n/a	n/a
516660.8778	1.600284102	2	152	1	9	9	8	3	n/a	n/a	n/a	n/a
516662.4781	1.600113699	2	153	1	9	9	9	3	n/a	n/a	n/a	n/a
516664.0782	1.600247965	2	154	1	9	9	10	3	n/a	n/a	n/a	n/a
516665.6784	1.600238577	2	155	1	9	9	11	3	n/a	n/a	n/a	n/a
516667.2787	1.600238895	2	156	1	9	9	12	3	n/a	n/a	n/a	n/a
