onset	duration	run_number	trial_number	att_task	bar_direction	bar_period	bar_step	stim_noise_ori	stim_stair_val	response_val	probe_time	reaction_time
433173.4995	1.599688573	2	1	1	9	1	1	3	n/a	n/a	n/a	n/a
433175.0992	1.60024893	2	2	1	9	1	2	3	n/a	n/a	n/a	n/a
433176.6994	1.600235551	2	3	1	9	1	3	3	n/a	n/a	n/a	n/a
433178.2997	1.600228427	2	4	1	9	1	4	3	n/a	n/a	n/a	n/a
433179.8999	1.600272451	2	5	1	9	1	5	3	n/a	n/a	n/a	n/a
433181.5002	1.600225227	2	6	1	9	1	6	3	n/a	n/a	n/a	n/a
433183.1004	1.600239995	2	7	1	9	1	7	3	n/a	n/a	n/a	n/a
433184.7006	1.600238661	2	8	1	9	1	8	3	n/a	n/a	n/a	n/a
433186.3009	1.600231708	2	9	1	9	1	9	3	n/a	n/a	n/a	n/a
433187.9011	1.600254081	2	10	1	9	1	10	3	n/a	n/a	n/a	n/a
433189.5014	1.600234809	2	11	1	9	1	11	3	n/a	n/a	n/a	n/a
433191.1016	1.600239937	2	12	1	9	1	12	3	n/a	n/a	n/a	n/a
433192.7018	1.600245554	2	13	1	1	2	1	2	8	n/a	433193.3019	n/a
433194.3021	1.600239519	2	14	1	1	2	2	2	8	n/a	433194.9021	n/a
433195.9023	1.600249951	2	15	1	1	2	3	2	8	0	433196.5024	0.5062587228
433197.5026	1.600221923	2	16	1	1	2	4	1	9	n/a	433198.1026	n/a
433199.1028	1.600224691	2	17	1	1	2	5	2	9	n/a	433199.7029	n/a
433200.703	1.60028195	2	18	1	1	2	6	2	9	n/a	433201.3032	n/a
433202.3033	1.600240392	2	19	1	1	2	7	1	9	n/a	433202.9035	n/a
433203.9035	1.600315642	2	20	1	1	2	8	2	9	n/a	433204.5036	n/a
433205.5039	1.600255713	2	21	1	1	2	9	2	9	n/a	433206.1039	n/a
433207.1041	1.600244561	2	22	1	1	2	10	2	9	n/a	433207.7042	n/a
433208.7044	1.600141763	2	23	1	1	2	11	2	9	n/a	433209.3043	n/a
433210.3045	1.600261085	2	24	1	1	2	12	1	9	n/a	433210.9046	n/a
433211.9048	1.600236657	2	25	1	1	2	13	1	9	n/a	433212.5048	n/a
433213.505	1.600331067	2	26	1	1	2	14	2	9	n/a	433214.1051	n/a
433215.1053	1.600152194	2	27	1	1	2	15	1	9	n/a	433215.7053	n/a
433216.7055	1.600246795	2	28	1	1	2	16	1	9	n/a	433217.3054	n/a
433218.3057	1.600229237	2	29	1	1	2	17	1	9	n/a	433218.9058	n/a
433219.906	1.600210707	2	30	1	1	2	18	2	9	n/a	433220.5061	n/a
433221.5062	1.600279035	2	31	1	1	2	19	1	9	n/a	433222.1063	n/a
433223.1064	1.600343799	2	32	1	1	2	20	1	9	n/a	433223.7066	n/a
433224.7068	1.600137448	2	33	1	1	2	21	1	9	n/a	433225.3068	n/a
433226.3069	1.600246822	2	34	1	1	2	22	2	9	n/a	433226.907	n/a
433227.9072	1.600250514	2	35	1	1	2	23	1	9	n/a	433228.5073	n/a
433229.5074	1.600219369	2	36	1	1	2	24	1	9	n/a	433230.1075	n/a
433231.1076	1.600313059	2	37	1	9	3	1	3	n/a	n/a	n/a	n/a
433232.708	1.600282079	2	38	1	9	3	2	3	n/a	n/a	n/a	n/a
433234.3082	1.600220215	2	39	1	9	3	3	3	n/a	n/a	n/a	n/a
433235.9085	1.600248209	2	40	1	9	3	4	3	n/a	n/a	n/a	n/a
433237.5087	1.600139492	2	41	1	9	3	5	3	n/a	n/a	n/a	n/a
433239.1088	1.600339608	2	42	1	9	3	6	3	n/a	n/a	n/a	n/a
433240.7092	1.600113695	2	43	1	9	3	7	3	n/a	n/a	n/a	n/a
433242.3093	1.600287974	2	44	1	9	3	8	3	n/a	n/a	n/a	n/a
433243.9096	1.600236688	2	45	1	9	3	9	3	n/a	n/a	n/a	n/a
433245.5098	1.600263258	2	46	1	9	3	10	3	n/a	n/a	n/a	n/a
433247.1101	1.600295432	2	47	1	9	3	11	3	n/a	n/a	n/a	n/a
433248.7104	1.600131033	2	48	1	9	3	12	3	n/a	n/a	n/a	n/a
433250.3105	1.600274286	2	49	1	3	4	1	1	9	n/a	433250.9108	n/a
433251.9108	1.600291116	2	50	1	3	4	2	2	9	n/a	433252.5109	n/a
433253.5111	1.600275232	2	51	1	3	4	3	1	9	n/a	433254.1112	n/a
433255.1113	1.600285601	2	52	1	3	4	4	2	9	n/a	433255.7114	n/a
433256.7116	1.600228819	2	53	1	3	4	5	1	9	n/a	433257.3117	n/a
433258.3119	1.600142582	2	54	1	3	4	6	2	9	n/a	433258.9119	n/a
433259.912	1.600223303	2	55	1	3	4	7	2	9	n/a	433260.5121	n/a
433261.5122	1.600239322	2	56	1	3	4	8	2	9	n/a	433262.1123	n/a
433263.1125	1.600246436	2	57	1	3	4	9	2	9	n/a	433263.7126	n/a
433264.7127	1.600259619	2	58	1	3	4	10	2	9	n/a	433265.3128	n/a
433266.313	1.600240583	2	59	1	3	4	11	1	9	n/a	433266.9131	n/a
433267.9132	1.600254727	2	60	1	3	4	12	1	9	n/a	433268.5133	n/a
433269.5135	1.600252716	2	61	1	3	4	13	1	9	n/a	433270.1136	n/a
433271.1137	1.600290079	2	62	1	3	4	14	2	9	n/a	433271.7138	n/a
433272.714	1.600279397	2	63	1	3	4	15	2	9	n/a	433273.3141	n/a
433274.3143	1.60012966	2	64	1	3	4	16	1	9	n/a	433274.9144	n/a
433275.9144	1.600249388	2	65	1	3	4	17	2	9	n/a	433276.5145	n/a
433277.5147	1.600235578	2	66	1	3	4	18	2	9	n/a	433278.1148	n/a
433279.1149	1.600228324	2	67	1	3	4	19	1	9	n/a	433279.715	n/a
433280.7151	1.600254346	2	68	1	3	4	20	2	9	n/a	433281.3153	n/a
433282.3154	1.600237137	2	69	1	3	4	21	1	9	n/a	433282.9155	n/a
433283.9156	1.600237144	2	70	1	3	4	22	1	9	n/a	433284.5157	n/a
433285.5159	1.600256448	2	71	1	3	4	23	2	9	n/a	433286.116	n/a
433287.1161	1.600282667	2	72	1	3	4	24	2	9	n/a	433287.7162	n/a
433288.7164	1.600276137	2	73	1	9	5	1	3	n/a	n/a	n/a	n/a
433290.3167	1.60026355	2	74	1	9	5	2	3	n/a	n/a	n/a	n/a
433291.9169	1.600250466	2	75	1	9	5	3	3	n/a	n/a	n/a	n/a
433293.5172	1.600131395	2	76	1	9	5	4	3	n/a	n/a	n/a	n/a
433295.1173	1.600238788	2	77	1	9	5	5	3	n/a	n/a	n/a	n/a
433296.7176	1.600247832	2	78	1	9	5	6	3	n/a	n/a	n/a	n/a
433298.3178	1.600343005	2	79	1	9	5	7	3	n/a	n/a	n/a	n/a
433299.9182	1.600144063	2	80	1	9	5	8	3	n/a	n/a	n/a	n/a
433301.5183	1.600256154	2	81	1	9	5	9	3	n/a	n/a	n/a	n/a
433303.1186	1.600228737	2	82	1	9	5	10	3	n/a	n/a	n/a	n/a
433304.7188	1.600242246	2	83	1	9	5	11	3	n/a	n/a	n/a	n/a
433306.319	1.600254868	2	84	1	9	5	12	3	n/a	n/a	n/a	n/a
433307.9193	1.600211694	2	85	1	5	6	1	1	9	n/a	433308.5194	n/a
433309.5195	1.600285608	2	86	1	5	6	2	1	9	n/a	433310.1196	n/a
433311.1198	1.600286149	2	87	1	5	6	3	2	9	n/a	433311.7199	n/a
433312.7201	1.600284846	2	88	1	5	6	4	1	9	n/a	433313.3202	n/a
433314.3203	1.60012517	2	89	1	5	6	5	1	9	n/a	433314.9204	n/a
433315.9205	1.600225602	2	90	1	5	6	6	2	9	n/a	433316.5205	n/a
433317.5207	1.600373542	2	91	1	5	6	7	2	9	n/a	433318.1208	n/a
433319.1211	1.600120549	2	92	1	5	6	8	2	9	n/a	433319.7211	n/a
433320.7212	1.600249004	2	93	1	5	6	9	1	9	n/a	433321.3213	n/a
433322.3214	1.60036275	2	94	1	5	6	10	2	9	n/a	433322.9215	n/a
433323.9218	1.600228071	2	95	1	5	6	11	2	9	n/a	433324.5218	n/a
433325.522	1.600130385	2	96	1	5	6	12	2	9	n/a	433326.122	n/a
433327.1222	1.600246278	2	97	1	5	6	13	2	9	n/a	433327.7224	n/a
433328.7224	1.600241551	2	98	1	5	6	14	1	9	n/a	433329.3225	n/a
433330.3227	1.600202197	2	99	1	5	6	15	2	9	n/a	433330.9228	n/a
433331.9229	1.60033794	2	100	1	5	6	16	2	9	n/a	433332.523	n/a
433333.5232	1.600283791	2	101	1	5	6	17	1	9	n/a	433334.1233	n/a
433335.1235	1.600121642	2	102	1	5	6	18	1	9	n/a	433335.7236	n/a
433336.7236	1.600273131	2	103	1	5	6	19	2	9	n/a	433337.3237	n/a
433338.3239	1.600225602	2	104	1	5	6	20	2	9	n/a	433338.924	n/a
433339.9241	1.600254363	2	105	1	5	6	21	2	9	n/a	433340.5242	n/a
433341.5244	1.600192019	2	106	1	5	6	22	1	9	n/a	433342.1245	n/a
433343.1245	1.600249946	2	107	1	5	6	23	2	9	n/a	433343.7247	n/a
433344.7248	1.600304613	2	108	1	5	6	24	1	9	n/a	433345.3249	n/a
433346.3251	1.600176072	2	109	1	9	7	1	3	n/a	n/a	n/a	n/a
433347.9253	1.600287422	2	110	1	9	7	2	3	n/a	n/a	n/a	n/a
433349.5256	1.600247273	2	111	1	9	7	3	3	n/a	n/a	n/a	n/a
433351.1258	1.60034798	2	112	1	9	7	4	3	n/a	n/a	n/a	n/a
433352.7262	1.600128557	2	113	1	9	7	5	3	n/a	n/a	n/a	n/a
433354.3263	1.600241727	2	114	1	9	7	6	3	n/a	n/a	n/a	n/a
433355.9265	1.600257732	2	115	1	9	7	7	3	n/a	n/a	n/a	n/a
433357.5268	1.600272585	2	116	1	9	7	8	3	n/a	n/a	n/a	n/a
433359.1271	1.600236916	2	117	1	9	7	9	3	n/a	n/a	n/a	n/a
433360.7273	1.600294932	2	118	1	9	7	10	3	n/a	n/a	n/a	n/a
433362.3276	1.600267585	2	119	1	9	7	11	3	n/a	n/a	n/a	n/a
433363.9279	1.600133016	2	120	1	9	7	12	3	n/a	n/a	n/a	n/a
433365.528	1.600247317	2	121	1	7	8	1	1	9	n/a	433366.1281	n/a
433367.1282	1.600232046	2	122	1	7	8	2	1	9	n/a	433367.7283	n/a
433368.7285	1.600241435	2	123	1	7	8	3	2	9	n/a	433369.3286	n/a
433370.3287	1.600259309	2	124	1	7	8	4	2	9	n/a	433370.9288	n/a
433371.929	1.60024327	2	125	1	7	8	5	2	9	n/a	433372.5291	n/a
433373.5292	1.600263909	2	126	1	7	8	6	2	9	n/a	433374.1293	n/a
433375.1295	1.600284818	2	127	1	7	8	7	1	9	n/a	433375.7296	n/a
433376.7298	1.600284052	2	128	1	7	8	8	1	9	n/a	433377.3299	n/a
433378.33	1.600224534	2	129	1	7	8	9	2	9	n/a	433378.9301	n/a
433379.9303	1.600248958	2	130	1	7	8	10	2	9	n/a	433380.5304	n/a
433381.5305	1.600101466	2	131	1	7	8	11	2	9	n/a	433382.1305	n/a
433383.1306	1.600249834	2	132	1	7	8	12	1	9	n/a	433383.7309	n/a
433384.7309	1.600271758	2	133	1	7	8	13	1	9	n/a	433385.331	n/a
433386.3311	1.600248105	2	134	1	7	8	14	2	9	n/a	433386.9312	n/a
433387.9314	1.60023583	2	135	1	7	8	15	1	9	n/a	433388.5315	n/a
433389.5316	1.600216891	2	136	1	7	8	16	2	9	n/a	433390.1317	n/a
433391.1318	1.600262192	2	137	1	7	8	17	2	9	n/a	433391.732	n/a
433392.7321	1.600242691	2	138	1	7	8	18	2	9	n/a	433393.3322	n/a
433394.3323	1.600262026	2	139	1	7	8	19	1	9	n/a	433394.9324	n/a
433395.9326	1.600191204	2	140	1	7	8	20	2	9	n/a	433396.5327	n/a
433397.5328	1.600396283	2	141	1	7	8	21	1	9	n/a	433398.1329	n/a
433399.1332	1.600117053	2	142	1	7	8	22	2	9	n/a	433399.7332	n/a
433400.7333	1.600255635	2	143	1	7	8	23	2	9	n/a	433401.3334	n/a
433402.3336	1.600240985	2	144	1	7	8	24	2	9	n/a	433402.9337	n/a
433403.9338	1.608584505	2	145	1	9	9	1	3	n/a	n/a	n/a	n/a
433405.5424	1.600216685	2	146	1	9	9	2	3	n/a	n/a	n/a	n/a
433407.1426	1.600253863	2	147	1	9	9	3	3	n/a	n/a	n/a	n/a
433408.7429	1.600261322	2	148	1	9	9	4	3	n/a	n/a	n/a	n/a
433410.3431	1.600342082	2	149	1	9	9	5	3	n/a	n/a	n/a	n/a
433411.9435	1.600102724	2	150	1	9	9	6	3	n/a	n/a	n/a	n/a
433413.5436	1.600378103	2	151	1	9	9	7	3	n/a	n/a	n/a	n/a
433415.1439	1.600143616	2	152	1	9	9	8	3	n/a	n/a	n/a	n/a
433416.7441	1.600251868	2	153	1	9	9	9	3	n/a	n/a	n/a	n/a
433418.3443	1.600223602	2	154	1	9	9	10	3	n/a	n/a	n/a	n/a
433419.9446	1.600338364	2	155	1	9	9	11	3	n/a	n/a	n/a	n/a
433421.5449	1.600144736	2	156	1	9	9	12	3	n/a	n/a	n/a	n/a
