onset	duration	run_number	trial_number	att_task	bar_direction	bar_period	bar_step	stim_noise_ori	stim_stair_val	response_val	probe_time	reaction_time
11741.25873	1.5166155	1	1	1	9	1	1	3	n/a	n/a	n/a	n/a
11742.77535	1.5315984	1	2	1	9	1	2	3	n/a	n/a	n/a	n/a
11744.30695	1.5317625	1	3	1	9	1	3	3	n/a	n/a	n/a	n/a
11745.83871	1.5335237	1	4	1	9	1	4	3	n/a	n/a	n/a	n/a
11747.37223	1.532948	1	5	1	9	1	5	3	n/a	n/a	n/a	n/a
11748.90518	1.5329904	1	6	1	9	1	6	3	n/a	n/a	n/a	n/a
11750.43817	1.5335569	1	7	1	9	1	7	3	n/a	n/a	n/a	n/a
11751.97173	1.5329137	1	8	1	9	1	8	3	n/a	n/a	n/a	n/a
11753.50464	1.5321943	1	9	1	9	1	9	3	n/a	n/a	n/a	n/a
11755.03684	1.5337037	1	10	1	9	1	10	3	n/a	n/a	n/a	n/a
11756.57054	1.5338879	1	11	1	9	1	11	3	n/a	n/a	n/a	n/a
11758.10443	1.5358766	1	12	1	9	1	12	3	n/a	n/a	n/a	n/a
11759.6403	1.5333218	1	13	1	1	2	1	2	9	n/a	11760.21565	n/a
11761.17362	1.5330988	1	14	1	1	2	2	1	9	n/a	11761.74873	n/a
11762.70672	1.5322897	1	15	1	1	2	3	1	9	n/a	11763.28081	n/a
11764.23901	1.5326185	1	16	1	1	2	4	1	9	n/a	11764.81405	n/a
11765.77163	1.5331955	1	17	1	1	2	5	1	9	n/a	11766.34682	n/a
11767.30483	1.5335031	1	18	1	1	2	6	1	9	n/a	11767.87979	n/a
11768.83833	1.533262	1	19	1	1	2	7	2	9	n/a	11769.41285	n/a
11770.37159	1.5333227	1	20	1	1	2	8	2	9	n/a	11770.94641	n/a
11771.90492	1.5340813	1	21	1	1	2	9	1	9	n/a	11772.48007	n/a
11773.439	1.5330397	1	22	1	1	2	10	2	9	n/a	11774.01402	n/a
11774.97204	1.533829	1	23	1	1	2	11	2	9	n/a	11775.54684	n/a
11776.50587	1.5335152	1	24	1	1	2	12	1	9	n/a	11777.08114	n/a
11778.03938	1.5337535	1	25	1	1	2	13	2	9	n/a	11778.61494	n/a
11779.57313	1.5337225	1	26	1	1	2	14	2	9	n/a	11780.14835	n/a
11781.10686	1.5328924	1	27	1	1	2	15	2	9	n/a	11781.68133	n/a
11782.63975	1.5337537	1	28	1	1	2	16	2	9	n/a	11783.21521	n/a
11784.1735	1.5335565	1	29	1	1	2	17	1	9	n/a	11784.74844	n/a
11785.70706	1.5325864	1	30	1	1	2	18	1	9	n/a	11786.28156	n/a
11787.23965	1.5327225	1	31	1	1	2	19	1	9	n/a	11787.81355	n/a
11788.77237	1.5331561	1	32	1	1	2	20	2	9	n/a	11789.34708	n/a
11790.30552	1.5329096	1	33	1	1	2	21	2	9	1	11790.88033	0.492755
11791.83843	1.5321496	1	34	1	1	2	22	1	9	0	11792.4132	0.5880246
11793.37058	1.5317949	1	35	1	1	2	23	2	10	0	11793.94552	0.7796896
11794.90238	1.5332809	1	36	1	1	2	24	2	11	n/a	11795.47753	n/a
11796.43566	1.5335954	1	37	1	9	3	1	3	n/a	n/a	n/a	n/a
11797.96925	1.5340822	1	38	1	9	3	2	3	n/a	n/a	n/a	n/a
11799.50334	1.5329722	1	39	1	9	3	3	3	n/a	n/a	n/a	n/a
11801.03631	1.5334959	1	40	1	9	3	4	3	n/a	n/a	n/a	n/a
11802.5698	1.5340804	1	41	1	9	3	5	3	n/a	n/a	n/a	n/a
11804.10389	1.5334696	1	42	1	9	3	6	3	n/a	n/a	n/a	n/a
11805.63735	1.5336082	1	43	1	9	3	7	3	n/a	n/a	n/a	n/a
11807.17096	1.5336501	1	44	1	9	3	8	3	n/a	n/a	n/a	n/a
11808.70461	1.5325723	1	45	1	9	3	9	3	n/a	n/a	n/a	n/a
11810.23719	1.5331478	1	46	1	9	3	10	3	n/a	n/a	n/a	n/a
11811.77033	1.5332126	1	47	1	9	3	11	3	n/a	n/a	n/a	n/a
11813.30355	1.5326581	1	48	1	9	3	12	3	n/a	n/a	n/a	n/a
11814.8362	1.5325628	1	49	1	3	4	1	2	11	0	11815.41102	0.6841976
11816.36877	1.53243	1	50	1	3	4	2	1	12	n/a	11816.94337	n/a
11817.9012	1.5334311	1	51	1	3	4	3	1	12	n/a	11818.47621	n/a
11819.43463	1.5330258	1	52	1	3	4	4	1	12	n/a	11820.00951	n/a
11820.96765	1.5330964	1	53	1	3	4	5	2	12	1	11821.54282	0.5876426
11822.50075	1.5334014	1	54	1	3	4	6	2	12	1	11823.07526	0.5881214
11824.03415	1.5321979	1	55	1	3	4	7	2	12	1	11824.60866	0.6343034
11825.56635	1.5324967	1	56	1	3	4	8	1	11	1	11826.1407	0.5883991
11827.09885	1.533497	1	57	1	3	4	9	1	11	0	11827.6737	0.4923241
11828.63234	1.5333245	1	58	1	3	4	10	2	12	1	11829.20734	0.8246656
11830.16567	1.5334418	1	59	1	3	4	11	2	12	n/a	11830.74062	n/a
11831.69911	1.5331201	1	60	1	3	4	12	1	12	1	11832.27426	0.7295013
11833.23223	1.5330285	1	61	1	3	4	13	2	12	1	11833.8071	0.58952
11834.76526	1.5327294	1	62	1	3	4	14	2	11	n/a	11835.34069	n/a
11836.29799	1.533594	1	63	1	3	4	15	2	11	n/a	11836.8733	n/a
11837.83158	1.5318192	1	64	1	3	4	16	2	11	1	11838.4059	0.7796774
11839.3634	1.5334662	1	65	1	3	4	17	1	11	1	11839.93851	0.8784781
11840.89687	1.5329577	1	66	1	3	4	18	2	11	n/a	11841.47188	n/a
11842.42982	1.5329689	1	67	1	3	4	19	2	11	n/a	11843.00467	n/a
11843.96279	1.5335326	1	68	1	3	4	20	2	11	n/a	11844.53751	n/a
11845.49633	1.5314891	1	69	1	3	4	21	1	11	n/a	11846.07107	n/a
11847.02781	1.5337335	1	70	1	3	4	22	2	11	n/a	11847.6031	n/a
11848.56155	1.5337657	1	71	1	3	4	23	2	11	n/a	11849.13665	n/a
11850.09531	1.5344636	1	72	1	3	4	24	1	11	n/a	11850.67072	n/a
11851.62978	1.5331467	1	73	1	9	5	1	3	n/a	n/a	n/a	n/a
11853.16292	1.5324493	1	74	1	9	5	2	3	n/a	n/a	n/a	n/a
11854.69537	1.5330141	1	75	1	9	5	3	3	n/a	n/a	n/a	n/a
11856.22839	1.5330718	1	76	1	9	5	4	3	n/a	n/a	n/a	n/a
11857.76146	1.5342243	1	77	1	9	5	5	3	n/a	n/a	n/a	n/a
11859.29568	1.5318833	1	78	1	9	5	6	3	n/a	n/a	n/a	n/a
11860.82757	1.5330526	1	79	1	9	5	7	3	n/a	n/a	n/a	n/a
11862.36062	1.5342178	1	80	1	9	5	8	3	n/a	n/a	n/a	n/a
11863.89484	1.5331433	1	81	1	9	5	9	3	n/a	n/a	n/a	n/a
11865.42798	1.5337594	1	82	1	9	5	10	3	n/a	n/a	n/a	n/a
11866.96174	1.5321918	1	83	1	9	5	11	3	n/a	n/a	n/a	n/a
11868.49393	1.53258	1	84	1	9	5	12	3	n/a	n/a	n/a	n/a
11870.02651	1.5336999	1	85	1	5	6	1	2	11	0	11870.60085	0.5885748
11871.56021	1.5332474	1	86	1	5	6	2	2	12	1	11872.135	0.6787881
11873.09346	1.5334431	1	87	1	5	6	3	1	12	1	11873.66817	0.6838484
11874.6269	1.5341903	1	88	1	5	6	4	1	12	1	11875.20295	0.7783811
11876.16109	1.5334736	1	89	1	5	6	5	2	11	1	11876.73587	0.7733074
11877.69457	1.533591	1	90	1	5	6	6	2	11	n/a	11878.26971	n/a
11879.22816	1.5325636	1	91	1	5	6	7	2	11	1	11879.80315	0.7793267
11880.76072	1.5329935	1	92	1	5	6	8	1	11	1	11881.33617	0.7794364
11882.29371	1.5337821	1	93	1	5	6	9	2	10	1	11882.86942	0.8761196
11883.8275	1.5339688	1	94	1	5	6	10	1	10	1	11884.40256	0.8765623
11885.36147	1.5327418	1	95	1	5	6	11	2	10	n/a	11885.93628	n/a
11886.89421	1.533329	1	96	1	5	6	12	2	10	n/a	11887.46903	n/a
11888.42754	1.5336777	1	97	1	5	6	13	1	10	1	11889.00255	0.8764753
11889.96121	1.5344872	1	98	1	5	6	14	2	9	1	11890.53684	0.5890971
11891.4957	1.5336451	1	99	1	5	6	15	2	9	n/a	11892.0708	n/a
11893.02935	1.5332415	1	100	1	5	6	16	2	9	n/a	11893.60465	n/a
11894.56259	1.5334608	1	101	1	5	6	17	1	9	1	11895.13778	0.780929
11896.09605	1.5320615	1	102	1	5	6	18	1	9	n/a	11896.67003	n/a
11897.62811	1.5323778	1	103	1	5	6	19	2	9	n/a	11898.20299	n/a
11899.16049	1.5331602	1	104	1	5	6	20	2	9	n/a	11899.73574	n/a
11900.69365	1.5342041	1	105	1	5	6	21	1	9	n/a	11901.26886	n/a
11902.22785	1.5336999	1	106	1	5	6	22	1	9	1	11902.80291	0.7802578
11903.76155	1.5332211	1	107	1	5	6	23	1	8	1	11904.33677	0.8722374
11905.29477	1.5328751	1	108	1	5	6	24	2	8	n/a	11905.87035	n/a
11906.82765	1.5329441	1	109	1	9	7	1	3	n/a	n/a	n/a	n/a
11908.36059	1.5342392	1	110	1	9	7	2	3	n/a	n/a	n/a	n/a
11909.89483	1.5330311	1	111	1	9	7	3	3	n/a	n/a	n/a	n/a
11911.42786	1.5338657	1	112	1	9	7	4	3	n/a	n/a	n/a	n/a
11912.96173	1.5336166	1	113	1	9	7	5	3	n/a	n/a	n/a	n/a
11914.49534	1.5340735	1	114	1	9	7	6	3	n/a	n/a	n/a	n/a
11916.02942	1.5342722	1	115	1	9	7	7	3	n/a	n/a	n/a	n/a
11917.56369	1.5327782	1	116	1	9	7	8	3	n/a	n/a	n/a	n/a
11919.09647	1.532931	1	117	1	9	7	9	3	n/a	n/a	n/a	n/a
11920.6294	1.5329253	1	118	1	9	7	10	3	n/a	n/a	n/a	n/a
11922.16233	1.5329333	1	119	1	9	7	11	3	n/a	n/a	n/a	n/a
11923.69526	1.5342023	1	120	1	9	7	12	3	n/a	n/a	n/a	n/a
11925.22946	1.5336738	1	121	1	7	8	1	2	8	n/a	11925.80452	n/a
11926.76313	1.5334484	1	122	1	7	8	2	1	8	1	11927.3384	0.7793606
11928.29658	1.5343014	1	123	1	7	8	3	1	8	n/a	11928.8721	n/a
11929.83088	1.5343063	1	124	1	7	8	4	2	8	1	11930.40627	0.7807877
11931.36519	1.5346503	1	125	1	7	8	5	1	7	n/a	11931.94031	n/a
11932.89984	1.533175	1	126	1	7	8	6	1	7	n/a	11933.47459	n/a
11934.43302	1.5327961	1	127	1	7	8	7	1	7	n/a	11935.00788	n/a
11935.96581	1.5325166	1	128	1	7	8	8	1	7	n/a	11936.5402	n/a
11937.49833	1.5327946	1	129	1	7	8	9	1	7	n/a	11938.07271	n/a
11939.03112	1.5336568	1	130	1	7	8	10	2	7	n/a	11939.60614	n/a
11940.56478	1.533464	1	131	1	7	8	11	1	7	n/a	11941.13947	n/a
11942.09824	1.5343202	1	132	1	7	8	12	1	7	n/a	11942.67316	n/a
11943.63256	1.5332292	1	133	1	7	8	13	1	7	1	11944.20746	0.6848987
11945.16579	1.5317697	1	134	1	7	8	14	2	7	n/a	11945.74034	n/a
11946.69756	1.5335358	1	135	1	7	8	15	1	7	n/a	11947.2733	n/a
11948.2311	1.5331101	1	136	1	7	8	16	1	7	n/a	11948.80618	n/a
11949.76421	1.5332253	1	137	1	7	8	17	2	7	n/a	11950.33946	n/a
11951.29743	1.5345638	1	138	1	7	8	18	1	7	n/a	11951.87349	n/a
11952.832	1.5328728	1	139	1	7	8	19	2	7	0	11953.40715	0.112277
11954.36487	1.5317125	1	140	1	7	8	20	1	8	n/a	11954.93927	n/a
11955.89658	1.5325379	1	141	1	7	8	21	1	8	n/a	11956.47159	n/a
11957.42912	1.5327965	1	142	1	7	8	22	1	8	0	11958.00412	0.87545
11958.96192	1.5331946	1	143	1	7	8	23	2	9	n/a	11959.53702	n/a
11960.49511	1.5335143	1	144	1	7	8	24	1	9	n/a	11961.07049	n/a
11962.02863	1.532417	1	145	1	9	9	1	3	n/a	n/a	n/a	n/a
11963.56104	1.5330686	1	146	1	9	9	2	3	n/a	n/a	n/a	n/a
11965.09411	1.5333214	1	147	1	9	9	3	3	n/a	n/a	n/a	n/a
11966.62743	1.5331158	1	148	1	9	9	4	3	n/a	n/a	n/a	n/a
11968.16055	1.5322401	1	149	1	9	9	5	3	n/a	n/a	n/a	n/a
11969.69279	1.5332361	1	150	1	9	9	6	3	n/a	n/a	n/a	n/a
11971.22603	1.5329879	1	151	1	9	9	7	3	n/a	n/a	n/a	n/a
11972.75901	1.5329272	1	152	1	9	9	8	3	n/a	n/a	n/a	n/a
11974.29194	1.5328607	1	153	1	9	9	9	3	n/a	n/a	n/a	n/a
11975.8248	1.5323491	1	154	1	9	9	10	3	n/a	n/a	n/a	n/a
11977.35715	1.5336609	1	155	1	9	9	11	3	n/a	n/a	n/a	n/a
11978.89081	1.5324291	1	156	1	9	9	12	3	n/a	n/a	n/a	n/a
