onset	duration	run_number	trial_number	att_task	bar_direction	bar_period	bar_step	stim_noise_ori	stim_stair_val	response_val	probe_time	reaction_time
340126.4363	1.602308666	2	1	1	9	1	1	3	n/a	n/a	n/a	n/a
340128.0386	1.600296118	2	2	1	9	1	2	3	n/a	n/a	n/a	n/a
340129.6389	1.600289886	2	3	1	9	1	3	3	n/a	n/a	n/a	n/a
340131.2392	1.600108225	2	4	1	9	1	4	3	n/a	n/a	n/a	n/a
340132.8393	1.600362261	2	5	1	9	1	5	3	n/a	n/a	n/a	n/a
340134.4397	1.608463286	2	6	1	9	1	6	3	n/a	n/a	n/a	n/a
340136.0481	1.600246426	2	7	1	9	1	7	3	n/a	n/a	n/a	n/a
340137.6484	1.600260826	2	8	1	9	1	8	3	n/a	n/a	n/a	n/a
340139.2486	1.600286014	2	9	1	9	1	9	3	n/a	n/a	n/a	n/a
340140.8489	1.608632994	2	10	1	9	1	10	3	n/a	n/a	n/a	n/a
340142.4575	1.600241388	2	11	1	9	1	11	3	n/a	n/a	n/a	n/a
340144.0578	1.600247871	2	12	1	9	1	12	3	n/a	n/a	n/a	n/a
340145.658	1.6002547	2	13	1	1	2	1	2	9	0	340146.2581	0.4057809182
340147.2583	1.600233267	2	14	1	1	2	2	2	10	1	340147.8584	0.7058395734
340148.8585	1.600245861	2	15	1	1	2	3	1	10	1	340149.4586	0.4034174958
340150.4588	1.60018107	2	16	1	1	2	4	1	10	1	340151.0589	0.5041434815
340152.0589	1.600304569	2	17	1	1	2	5	1	9	1	340152.6591	0.6047047979
340153.6593	1.600246361	2	18	1	1	2	6	1	9	1	340154.2593	0.7047890142
340155.2595	1.600253365	2	19	1	1	2	7	1	9	n/a	340155.8596	n/a
340156.8598	1.600243859	2	20	1	1	2	8	1	9	1	340157.4598	0.5065526591
340158.46	1.600241047	2	21	1	1	2	9	2	8	0	340159.06	0.9052562769
340160.0602	1.600154564	2	22	1	1	2	10	1	9	1	340160.6602	0.7049899708
340161.6604	1.600234008	2	23	1	1	2	11	1	9	1	340162.2605	0.706407075
340163.2606	1.600239631	2	24	1	1	2	12	2	9	1	340163.8607	0.6087037973
340164.8609	1.600245904	2	25	1	1	2	13	1	8	1	340165.4609	0.6072843829
340166.4611	1.600335755	2	26	1	1	2	14	1	8	1	340167.0613	0.6071227322
340168.0614	1.600140503	2	27	1	1	2	15	1	8	1	340168.6614	0.7052839197
340169.6616	1.600240594	2	28	1	1	2	16	1	7	1	340170.2617	0.7060589441
340171.2618	1.600247726	2	29	1	1	2	17	2	7	1	340171.8619	0.6064391932
340172.8621	1.600267886	2	30	1	1	2	18	1	7	n/a	340173.4622	n/a
340174.4623	1.600247712	2	31	1	1	2	19	1	7	1	340175.0624	0.8064322586
340176.0626	1.600221243	2	32	1	1	2	20	2	6	n/a	340176.6628	n/a
340177.6628	1.60025349	2	33	1	1	2	21	1	6	n/a	340178.2629	n/a
340179.2631	1.600232167	2	34	1	1	2	22	2	6	n/a	340179.8631	n/a
340180.8633	1.600266657	2	35	1	1	2	23	1	6	1	340181.4634	0.7050124137
340182.4636	1.6002945	2	36	1	1	2	24	2	6	1	340183.0638	0.7045293775
340184.0639	1.600287377	2	37	1	9	3	1	3	n/a	n/a	n/a	n/a
340185.6641	1.60010248	2	38	1	9	3	2	3	n/a	n/a	n/a	n/a
340187.2642	1.600249682	2	39	1	9	3	3	3	n/a	n/a	n/a	n/a
340188.8645	1.600263071	2	40	1	9	3	4	3	n/a	n/a	n/a	n/a
340190.4648	1.60036002	2	41	1	9	3	5	3	n/a	n/a	n/a	n/a
340192.0651	1.600228902	2	42	1	9	3	6	3	n/a	n/a	n/a	n/a
340193.6654	1.600265406	2	43	1	9	3	7	3	n/a	n/a	n/a	n/a
340195.2656	1.600130133	2	44	1	9	3	8	3	n/a	n/a	n/a	n/a
340196.8657	1.600283333	2	45	1	9	3	9	3	n/a	n/a	n/a	n/a
340198.466	1.600278704	2	46	1	9	3	10	3	n/a	n/a	n/a	n/a
340200.0663	1.600283439	2	47	1	9	3	11	3	n/a	n/a	n/a	n/a
340201.6666	1.600154384	2	48	1	9	3	12	3	n/a	n/a	n/a	n/a
340203.2667	1.600224808	2	49	1	3	4	1	1	6	1	340203.8668	0.5074545402
340204.867	1.600217108	2	50	1	3	4	2	2	5	1	340205.4671	0.8088345075
340206.4672	1.600278151	2	51	1	3	4	3	1	5	n/a	340207.0673	n/a
340208.0675	1.600181968	2	52	1	3	4	4	2	5	n/a	340208.6677	n/a
340209.6676	1.60035255	2	53	1	3	4	5	2	5	n/a	340210.2678	n/a
340211.268	1.600180364	2	54	1	3	4	6	1	5	1	340211.868	0.7065810033
340212.8682	1.600268059	2	55	1	3	4	7	1	5	1	340213.4683	0.7066215749
340214.4684	1.600294157	2	56	1	3	4	8	2	4	1	340215.0685	0.9076871648
340216.0687	1.600271245	2	57	1	3	4	9	2	4	n/a	340216.6688	n/a
340217.669	1.600279733	2	58	1	3	4	10	1	4	0	340218.269	0.9063192442
340219.2693	1.600155125	2	59	1	3	4	11	1	5	1	340219.8693	0.9066469424
340220.8694	1.600191868	2	60	1	3	4	12	1	5	1	340221.4695	0.6074734646
340222.4696	1.600249922	2	61	1	3	4	13	1	5	n/a	340223.0697	n/a
340224.0699	1.600256329	2	62	1	3	4	14	1	5	n/a	340224.67	n/a
340225.6701	1.600255212	2	63	1	3	4	15	1	5	n/a	340226.2702	n/a
340227.2704	1.600225045	2	64	1	3	4	16	2	5	0	340227.8705	0.00504131784
340228.8706	1.600270106	2	65	1	3	4	17	2	6	1	340229.4707	0.4083314095
340230.4709	1.600223739	2	66	1	3	4	18	1	6	n/a	340231.071	n/a
340232.0711	1.600278661	2	67	1	3	4	19	1	6	n/a	340232.6712	n/a
340233.6714	1.600318806	2	68	1	3	4	20	1	6	n/a	340234.2716	n/a
340235.2717	1.600243159	2	69	1	3	4	21	2	6	0	340235.8718	-0.09600325522
340236.872	1.600246882	2	70	1	3	4	22	2	7	0	340237.472	0.4070207711
340238.4722	1.600118917	2	71	1	3	4	23	1	8	1	340239.0722	0.9077481277
340240.0723	1.600250688	2	72	1	3	4	24	1	8	1	340240.6724	0.8052570646
340241.6726	1.600341571	2	73	1	9	5	1	3	n/a	n/a	n/a	n/a
340243.2729	1.600272128	2	74	1	9	5	2	3	n/a	n/a	n/a	n/a
340244.8732	1.600199394	2	75	1	9	5	3	3	n/a	n/a	n/a	n/a
340246.4734	1.608619383	2	76	1	9	5	4	3	n/a	n/a	n/a	n/a
340248.082	1.600269408	2	77	1	9	5	5	3	n/a	n/a	n/a	n/a
340249.6823	1.600225506	2	78	1	9	5	6	3	n/a	n/a	n/a	n/a
340251.2825	1.60024212	2	79	1	9	5	7	3	n/a	n/a	n/a	n/a
340252.8827	1.600260227	2	80	1	9	5	8	3	n/a	n/a	n/a	n/a
340254.483	1.600228141	2	81	1	9	5	9	3	n/a	n/a	n/a	n/a
340256.0832	1.600250657	2	82	1	9	5	10	3	n/a	n/a	n/a	n/a
340257.6835	1.600230475	2	83	1	9	5	11	3	n/a	n/a	n/a	n/a
340259.2837	1.600261622	2	84	1	9	5	12	3	n/a	n/a	n/a	n/a
340260.884	1.600230949	2	85	1	5	6	1	2	8	1	340261.4841	0.4032608122
340262.4842	1.600245457	2	86	1	5	6	2	2	7	1	340263.0843	0.7047867734
340264.0845	1.60024888	2	87	1	5	6	3	1	7	1	340264.6845	0.6050761918
340265.6847	1.600127282	2	88	1	5	6	4	1	7	n/a	340266.2847	n/a
340267.2848	1.600248622	2	89	1	5	6	5	1	7	1	340267.8849	0.8051565625
340268.8851	1.600329959	2	90	1	5	6	6	1	6	1	340269.4852	0.9051373973
340270.4854	1.608595296	2	91	1	5	6	7	2	6	1	340271.0854	0.8119965178
340272.094	1.600135221	2	92	1	5	6	8	1	6	1	340272.6941	0.9031576979
340273.6941	1.600245271	2	93	1	5	6	9	2	5	1	340274.2942	0.6048853014
340275.2944	1.600256798	2	94	1	5	6	10	1	5	1	340275.8946	0.9049975651
340276.8946	1.600236673	2	95	1	5	6	11	1	5	n/a	340277.4947	n/a
340278.4949	1.600368628	2	96	1	5	6	12	2	5	n/a	340279.0951	n/a
340280.0952	1.600181578	2	97	1	5	6	13	2	5	0	340280.6953	0.003233373398
340281.6954	1.600297979	2	98	1	5	6	14	1	6	1	340282.2956	0.6058553815
340283.2957	1.60024468	2	99	1	5	6	15	1	6	1	340283.8958	0.8030635999
340284.896	1.600249504	2	100	1	5	6	16	2	6	1	340285.4961	0.8055734571
340286.4962	1.600240857	2	101	1	5	6	17	1	5	n/a	340287.0963	n/a
340288.0965	1.608569349	2	102	1	5	6	18	1	5	n/a	340288.6966	n/a
340289.705	1.600269304	2	103	1	5	6	19	2	5	1	340290.3051	0.7065470122
340291.3053	1.600228475	2	104	1	5	6	20	1	5	0	340291.9054	0.9074569631
340292.9055	1.600144492	2	105	1	5	6	21	2	6	n/a	340293.5056	n/a
340294.5057	1.600242824	2	106	1	5	6	22	1	6	n/a	340295.1057	n/a
340296.1059	1.60034092	2	107	1	5	6	23	1	6	n/a	340296.706	n/a
340297.7063	1.608463927	2	108	1	5	6	24	1	6	n/a	340298.3064	n/a
340299.3147	1.600248567	2	109	1	9	7	1	3	n/a	n/a	n/a	n/a
340300.915	1.600249839	2	110	1	9	7	2	3	n/a	n/a	n/a	n/a
340302.5152	1.600254649	2	111	1	9	7	3	3	n/a	n/a	n/a	n/a
340304.1155	1.600327583	2	112	1	9	7	4	3	n/a	n/a	n/a	n/a
340305.7158	1.600176453	2	113	1	9	7	5	3	n/a	n/a	n/a	n/a
340307.316	1.600313216	2	114	1	9	7	6	3	n/a	n/a	n/a	n/a
340308.9163	1.600243737	2	115	1	9	7	7	3	n/a	n/a	n/a	n/a
340310.5165	1.60017667	2	116	1	9	7	8	3	n/a	n/a	n/a	n/a
340312.1167	1.600337038	2	117	1	9	7	9	3	n/a	n/a	n/a	n/a
340313.717	1.600258969	2	118	1	9	7	10	3	n/a	n/a	n/a	n/a
340315.3173	1.600230808	2	119	1	9	7	11	3	n/a	n/a	n/a	n/a
340316.9175	1.600236057	2	120	1	9	7	12	3	n/a	n/a	n/a	n/a
340318.5178	1.600218772	2	121	1	7	8	1	1	6	1	340319.1178	0.9042045079
340320.118	1.600259906	2	122	1	7	8	2	2	6	0	340320.7181	0.7059519019
340321.7183	1.600154915	2	123	1	7	8	3	2	7	n/a	340322.3183	n/a
340323.3184	1.608662208	2	124	1	7	8	4	1	7	1	340323.9266	0.01014730835
340324.9271	1.600265755	2	125	1	7	8	5	1	7	1	340325.527	0.8051942132
340326.5273	1.600135472	2	126	1	7	8	6	2	7	1	340327.1274	0.9070260692
340328.1275	1.600228249	2	127	1	7	8	7	2	6	n/a	340328.7276	n/a
340329.7277	1.60025858	2	128	1	7	8	8	2	6	n/a	340330.3278	n/a
340331.328	1.60022871	2	129	1	7	8	9	1	6	1	340331.928	0.7064014483
340332.9282	1.608598429	2	130	1	7	8	10	1	6	1	340333.5366	0.7063651768
340334.5368	1.600237524	2	131	1	7	8	11	2	6	1	340335.1369	0.7071210298
340336.137	1.600257986	2	132	1	7	8	12	2	5	n/a	340336.7371	n/a
340337.7373	1.600342463	2	133	1	7	8	13	1	5	n/a	340338.3374	n/a
340339.3376	1.600251208	2	134	1	7	8	14	1	5	n/a	340339.9377	n/a
340340.9379	1.600247124	2	135	1	7	8	15	2	5	n/a	340341.538	n/a
340342.5381	1.60024388	2	136	1	7	8	16	2	5	1	340343.1382	0.5081315423
340344.1384	1.600114188	2	137	1	7	8	17	2	5	n/a	340344.7384	n/a
340345.7385	1.600258612	2	138	1	7	8	18	1	5	n/a	340346.3386	n/a
340347.3387	1.600228133	2	139	1	7	8	19	1	5	n/a	340347.9388	n/a
340348.939	1.600375424	2	140	1	7	8	20	1	5	n/a	340349.5392	n/a
340350.5393	1.608579104	2	141	1	7	8	21	2	5	n/a	340351.1394	n/a
340352.1479	1.60025202	2	142	1	7	8	22	1	5	n/a	340352.748	n/a
340353.7482	1.600228125	2	143	1	7	8	23	1	5	1	340354.3483	-0.09705122258
340355.3484	1.600258635	2	144	1	7	8	24	1	5	0	340355.9485	0.005412638711
340356.9487	1.600227439	2	145	1	9	9	1	3	n/a	n/a	n/a	n/a
340358.5489	1.600258143	2	146	1	9	9	2	3	n/a	n/a	n/a	n/a
340360.1491	1.600242306	2	147	1	9	9	3	3	n/a	n/a	n/a	n/a
340361.7494	1.600248757	2	148	1	9	9	4	3	n/a	n/a	n/a	n/a
340363.3496	1.600234665	2	149	1	9	9	5	3	n/a	n/a	n/a	n/a
340364.9499	1.600255296	2	150	1	9	9	6	3	n/a	n/a	n/a	n/a
340366.5501	1.600248614	2	151	1	9	9	7	3	n/a	n/a	n/a	n/a
340368.1504	1.600244684	2	152	1	9	9	8	3	n/a	n/a	n/a	n/a
340369.7506	1.600237439	2	153	1	9	9	9	3	n/a	n/a	n/a	n/a
340371.3509	1.60019258	2	154	1	9	9	10	3	n/a	n/a	n/a	n/a
340372.9511	1.600180974	2	155	1	9	9	11	3	n/a	n/a	n/a	n/a
340374.5512	1.600217053	2	156	1	9	9	12	3	n/a	n/a	n/a	n/a
