onset	duration	run_number	trial_number	att_task	bar_direction	bar_period	bar_step	stim_noise_ori	stim_stair_val	response_val	probe_time	reaction_time
26740.07539	1.605530054	2	1	1	9	1	1	3	n/a	n/a	n/a	n/a
26741.68092	1.600230498	2	2	1	9	1	2	3	n/a	n/a	n/a	n/a
26743.28115	1.600244307	2	3	1	9	1	3	3	n/a	n/a	n/a	n/a
26744.8814	1.600249928	2	4	1	9	1	4	3	n/a	n/a	n/a	n/a
26746.48165	1.600232384	2	5	1	9	1	5	3	n/a	n/a	n/a	n/a
26748.08188	1.600246792	2	6	1	9	1	6	3	n/a	n/a	n/a	n/a
26749.68212	1.60025412	2	7	1	9	1	7	3	n/a	n/a	n/a	n/a
26751.28238	1.600239565	2	8	1	9	1	8	3	n/a	n/a	n/a	n/a
26752.88262	1.600235811	2	9	1	9	1	9	3	n/a	n/a	n/a	n/a
26754.48285	1.600230071	2	10	1	9	1	10	3	n/a	n/a	n/a	n/a
26756.08308	1.600261726	2	11	1	9	1	11	3	n/a	n/a	n/a	n/a
26757.68335	1.600275053	2	12	1	9	1	12	3	n/a	n/a	n/a	n/a
26759.28362	1.600288052	2	13	1	1	2	1	2	9	n/a	26759.8838	n/a
26760.88391	1.600270973	2	14	1	1	2	2	2	9	n/a	26761.48402	n/a
26762.48418	1.600142581	2	15	1	1	2	3	2	9	n/a	26763.08428	n/a
26764.08432	1.600226893	2	16	1	1	2	4	2	9	n/a	26764.68453	n/a
26765.68455	1.600242208	2	17	1	1	2	5	2	9	n/a	26766.28465	n/a
26767.28479	1.600266602	2	18	1	1	2	6	2	9	n/a	26767.88479	n/a
26768.88506	1.600225629	2	19	1	1	2	7	2	9	n/a	26769.48524	n/a
26770.48528	1.600351905	2	20	1	1	2	8	2	9	n/a	26771.08538	n/a
26772.08564	1.60019026	2	21	1	1	2	9	1	9	n/a	26772.68562	n/a
26773.68583	1.600270812	2	22	1	1	2	10	1	9	n/a	26774.28591	n/a
26775.2861	1.60026936	2	23	1	1	2	11	1	9	n/a	26775.88622	n/a
26776.88637	1.600255869	2	24	1	1	2	12	1	9	n/a	26777.48647	n/a
26778.48662	1.600105388	2	25	1	1	2	13	2	9	n/a	26779.08671	n/a
26780.08673	1.600249871	2	26	1	1	2	14	1	9	n/a	26780.68695	n/a
26781.68698	1.600252483	2	27	1	1	2	15	1	9	n/a	26782.28708	n/a
26783.28723	1.600236042	2	28	1	1	2	16	2	9	n/a	26783.88731	n/a
26784.88747	1.600275173	2	29	1	1	2	17	2	9	n/a	26785.48757	n/a
26786.48774	1.600234668	2	30	1	1	2	18	2	9	n/a	26787.08783	n/a
26788.08798	1.600259759	2	31	1	1	2	19	2	9	n/a	26788.68806	n/a
26789.68824	1.600235769	2	32	1	1	2	20	1	9	n/a	26790.28832	n/a
26791.28847	1.600233783	2	33	1	1	2	21	2	9	n/a	26791.88851	n/a
26792.8887	1.600251059	2	34	1	1	2	22	1	9	n/a	26793.48877	n/a
26794.48896	1.600245681	2	35	1	1	2	23	1	9	n/a	26795.08906	n/a
26796.0892	1.60023684	2	36	1	1	2	24	2	9	n/a	26796.68925	n/a
26797.68944	1.600338984	2	37	1	9	3	1	3	n/a	n/a	n/a	n/a
26799.28978	1.600153145	2	38	1	9	3	2	3	n/a	n/a	n/a	n/a
26800.88993	1.60024493	2	39	1	9	3	3	3	n/a	n/a	n/a	n/a
26802.49018	1.600173775	2	40	1	9	3	4	3	n/a	n/a	n/a	n/a
26804.09035	1.600294019	2	41	1	9	3	5	3	n/a	n/a	n/a	n/a
26805.69064	1.600228985	2	42	1	9	3	6	3	n/a	n/a	n/a	n/a
26807.29087	1.600261308	2	43	1	9	3	7	3	n/a	n/a	n/a	n/a
26808.89113	1.600251558	2	44	1	9	3	8	3	n/a	n/a	n/a	n/a
26810.49139	1.600193687	2	45	1	9	3	9	3	n/a	n/a	n/a	n/a
26812.09158	1.600282556	2	46	1	9	3	10	3	n/a	n/a	n/a	n/a
26813.69186	1.600339619	2	47	1	9	3	11	3	n/a	n/a	n/a	n/a
26815.2922	1.60018515	2	48	1	9	3	12	3	n/a	n/a	n/a	n/a
26816.89239	1.600300228	2	49	1	3	4	1	2	9	n/a	26817.49251	n/a
26818.49269	1.600260215	2	50	1	3	4	2	1	9	n/a	26819.0928	n/a
26820.09295	1.600133498	2	51	1	3	4	3	1	9	n/a	26820.69304	n/a
26821.69308	1.600338718	2	52	1	3	4	4	1	9	n/a	26822.29317	n/a
26823.29342	1.600221305	2	53	1	3	4	5	2	9	n/a	26823.89341	n/a
26824.89364	1.600169096	2	54	1	3	4	6	1	9	n/a	26825.49365	n/a
26826.49381	1.600251952	2	55	1	3	4	7	1	9	n/a	26827.0939	n/a
26828.09406	1.600222022	2	56	1	3	4	8	2	9	n/a	26828.69415	n/a
26829.69428	1.600270931	2	57	1	3	4	9	1	9	n/a	26830.29438	n/a
26831.29455	1.600235679	2	58	1	3	4	10	1	9	n/a	26831.89465	n/a
26832.89479	1.600229528	2	59	1	3	4	11	2	9	n/a	26833.49493	n/a
26834.49502	1.600252831	2	60	1	3	4	12	2	9	n/a	26835.09512	n/a
26836.09527	1.600256636	2	61	1	3	4	13	1	9	n/a	26836.69536	n/a
26837.69553	1.600230683	2	62	1	3	4	14	2	9	n/a	26838.2956	n/a
26839.29576	1.60024706	2	63	1	3	4	15	1	9	n/a	26839.89584	n/a
26840.89601	1.600246756	2	64	1	3	4	16	1	9	n/a	26841.49612	n/a
26842.49625	1.600252176	2	65	1	3	4	17	2	9	n/a	26843.09635	n/a
26844.09651	1.600231821	2	66	1	3	4	18	1	9	n/a	26844.69658	n/a
26845.69674	1.600243951	2	67	1	3	4	19	2	9	n/a	26846.29683	n/a
26847.29698	1.600254996	2	68	1	3	4	20	1	9	n/a	26847.89707	n/a
26848.89724	1.600250189	2	69	1	3	4	21	1	9	n/a	26849.49732	n/a
26850.49749	1.600326143	2	70	1	3	4	22	2	9	n/a	26851.09757	n/a
26852.09781	1.600244069	2	71	1	3	4	23	1	9	n/a	26852.69788	n/a
26853.69806	1.600095535	2	72	1	3	4	24	2	9	n/a	26854.29814	n/a
26855.29815	1.600256092	2	73	1	9	5	1	3	n/a	n/a	n/a	n/a
26856.89841	1.600270413	2	74	1	9	5	2	3	n/a	n/a	n/a	n/a
26858.49868	1.60030226	2	75	1	9	5	3	3	n/a	n/a	n/a	n/a
26860.09898	1.600285164	2	76	1	9	5	4	3	n/a	n/a	n/a	n/a
26861.69927	1.60011869	2	77	1	9	5	5	3	n/a	n/a	n/a	n/a
26863.29938	1.600256643	2	78	1	9	5	6	3	n/a	n/a	n/a	n/a
26864.89964	1.600299765	2	79	1	9	5	7	3	n/a	n/a	n/a	n/a
26866.49994	1.600289912	2	80	1	9	5	8	3	n/a	n/a	n/a	n/a
26868.10023	1.600251506	2	81	1	9	5	9	3	n/a	n/a	n/a	n/a
26869.70048	1.600141116	2	82	1	9	5	10	3	n/a	n/a	n/a	n/a
26871.30062	1.600227566	2	83	1	9	5	11	3	n/a	n/a	n/a	n/a
26872.90085	1.600259067	2	84	1	9	5	12	3	n/a	n/a	n/a	n/a
26874.50111	1.600250589	2	85	1	5	6	1	1	9	n/a	26875.10114	n/a
26876.10136	1.600223728	2	86	1	5	6	2	1	9	n/a	26876.70146	n/a
26877.70158	1.600262916	2	87	1	5	6	3	2	9	n/a	26878.30174	n/a
26879.30185	1.600241036	2	88	1	5	6	4	1	9	n/a	26879.90199	n/a
26880.90209	1.600271126	2	89	1	5	6	5	1	9	n/a	26881.50216	n/a
26882.50236	1.600278044	2	90	1	5	6	6	2	9	n/a	26883.10245	n/a
26884.10264	1.600278745	2	91	1	5	6	7	2	9	n/a	26884.70273	n/a
26885.70292	1.600112145	2	92	1	5	6	8	2	9	n/a	26886.30301	n/a
26887.30303	1.600274388	2	93	1	5	6	9	2	9	n/a	26887.90314	n/a
26888.9033	1.600349531	2	94	1	5	6	10	1	9	n/a	26889.50339	n/a
26890.50365	1.600118306	2	95	1	5	6	11	1	9	n/a	26891.1036	n/a
26892.10377	1.600305382	2	96	1	5	6	12	2	9	n/a	26892.70387	n/a
26893.70408	1.600285796	2	97	1	5	6	13	1	9	n/a	26894.3041	n/a
26895.30436	1.600153109	2	98	1	5	6	14	2	9	n/a	26895.90438	n/a
26896.90452	1.600270784	2	99	1	5	6	15	2	9	n/a	26897.50462	n/a
26898.50479	1.600224646	2	100	1	5	6	16	2	9	n/a	26899.10486	n/a
26900.10501	1.600287244	2	101	1	5	6	17	2	9	n/a	26900.70514	n/a
26901.7053	1.600302265	2	102	1	5	6	18	1	9	n/a	26902.30542	n/a
26903.3056	1.600244696	2	103	1	5	6	19	2	9	n/a	26903.90569	n/a
26904.90584	1.600214617	2	104	1	5	6	20	2	9	n/a	26905.50594	n/a
26906.50606	1.600155489	2	105	1	5	6	21	2	9	n/a	26907.10604	n/a
26908.10622	1.600351091	2	106	1	5	6	22	2	9	n/a	26908.7063	n/a
26909.70657	1.600111663	2	107	1	5	6	23	2	9	n/a	26910.30654	n/a
26911.30668	1.600281559	2	108	1	5	6	24	1	9	n/a	26911.90679	n/a
26912.90696	1.600227406	2	109	1	9	7	1	3	n/a	n/a	n/a	n/a
26914.50719	1.600247904	2	110	1	9	7	2	3	n/a	n/a	n/a	n/a
26916.10743	1.600277926	2	111	1	9	7	3	3	n/a	n/a	n/a	n/a
26917.70771	1.60032542	2	112	1	9	7	4	3	n/a	n/a	n/a	n/a
26919.30804	1.600127813	2	113	1	9	7	5	3	n/a	n/a	n/a	n/a
26920.90817	1.600262944	2	114	1	9	7	6	3	n/a	n/a	n/a	n/a
26922.50843	1.600277512	2	115	1	9	7	7	3	n/a	n/a	n/a	n/a
26924.10871	1.600304848	2	116	1	9	7	8	3	n/a	n/a	n/a	n/a
26925.70901	1.600239696	2	117	1	9	7	9	3	n/a	n/a	n/a	n/a
26927.30925	1.600118519	2	118	1	9	7	10	3	n/a	n/a	n/a	n/a
26928.90937	1.600230736	2	119	1	9	7	11	3	n/a	n/a	n/a	n/a
26930.5096	1.600245703	2	120	1	9	7	12	3	n/a	n/a	n/a	n/a
26932.10985	1.600259303	2	121	1	7	8	1	2	9	n/a	26932.70995	n/a
26933.71011	1.60028612	2	122	1	7	8	2	2	9	n/a	26934.31021	n/a
26935.31039	1.600205448	2	123	1	7	8	3	1	9	n/a	26935.91043	n/a
26936.9106	1.600290333	2	124	1	7	8	4	2	9	n/a	26937.51069	n/a
26938.51089	1.600207895	2	125	1	7	8	5	1	9	n/a	26939.11093	n/a
26940.11109	1.600295146	2	126	1	7	8	6	1	9	n/a	26940.71119	n/a
26941.71139	1.600230033	2	127	1	7	8	7	1	9	n/a	26942.31143	n/a
26943.31162	1.600232289	2	128	1	7	8	8	1	9	n/a	26943.91168	n/a
26944.91185	1.60030518	2	129	1	7	8	9	2	9	n/a	26945.51198	n/a
26946.51216	1.600246766	2	130	1	7	8	10	2	9	n/a	26947.11227	n/a
26948.1124	1.600241028	2	131	1	7	8	11	2	9	n/a	26948.71239	n/a
26949.71265	1.600115164	2	132	1	7	8	12	2	9	n/a	26950.31263	n/a
26951.31276	1.600271322	2	133	1	7	8	13	1	9	n/a	26951.91288	n/a
26952.91303	1.60020921	2	134	1	7	8	14	1	9	n/a	26953.51313	n/a
26954.51324	1.600264602	2	135	1	7	8	15	1	9	n/a	26955.11337	n/a
26956.11351	1.600213075	2	136	1	7	8	16	1	9	n/a	26956.71359	n/a
26957.71372	1.600283509	2	137	1	7	8	17	1	9	n/a	26958.31386	n/a
26959.314	1.600257236	2	138	1	7	8	18	1	9	n/a	26959.91411	n/a
26960.91426	1.600275655	2	139	1	7	8	19	1	9	n/a	26961.51436	n/a
26962.51454	1.600208083	2	140	1	7	8	20	2	9	n/a	26963.1146	n/a
26964.11474	1.600219034	2	141	1	7	8	21	2	9	n/a	26964.71484	n/a
26965.71496	1.600232784	2	142	1	7	8	22	2	9	n/a	26966.31508	n/a
26967.3152	1.60028069	2	143	1	7	8	23	2	9	n/a	26967.91532	n/a
26968.91548	1.600327942	2	144	1	7	8	24	1	9	n/a	26969.51557	n/a
26970.5158	1.600164029	2	145	1	9	9	1	3	n/a	n/a	n/a	n/a
26972.11597	1.600322967	2	146	1	9	9	2	3	n/a	n/a	n/a	n/a
26973.71629	1.600247192	2	147	1	9	9	3	3	n/a	n/a	n/a	n/a
26975.31654	1.600245681	2	148	1	9	9	4	3	n/a	n/a	n/a	n/a
26976.91678	1.60014097	2	149	1	9	9	5	3	n/a	n/a	n/a	n/a
26978.51692	1.600213618	2	150	1	9	9	6	3	n/a	n/a	n/a	n/a
26980.11714	1.608608433	2	151	1	9	9	7	3	n/a	n/a	n/a	n/a
26981.72575	1.600254289	2	152	1	9	9	8	3	n/a	n/a	n/a	n/a
26983.326	1.600238315	2	153	1	9	9	9	3	n/a	n/a	n/a	n/a
26984.92624	1.600248589	2	154	1	9	9	10	3	n/a	n/a	n/a	n/a
26986.52649	1.60023902	2	155	1	9	9	11	3	n/a	n/a	n/a	n/a
26988.12673	1.600232601	2	156	1	9	9	12	3	n/a	n/a	n/a	n/a
