onset	duration	run_number	trial_number	att_task	bar_direction	bar_period	bar_step	stim_noise_ori	stim_stair_val	response_val	probe_time	reaction_time
634.4083228	1.598136173	1	1	1	9	1	1	3	n/a	n/a	n/a	n/a
636.006459	1.600308669	1	2	1	9	1	2	3	n/a	n/a	n/a	n/a
637.6067676	1.600279158	1	3	1	9	1	3	3	n/a	n/a	n/a	n/a
639.2070468	1.600228527	1	4	1	9	1	4	3	n/a	n/a	n/a	n/a
640.8072753	1.600192328	1	5	1	9	1	5	3	n/a	n/a	n/a	n/a
642.4074677	1.600237975	1	6	1	9	1	6	3	n/a	n/a	n/a	n/a
644.0077056	1.600286535	1	7	1	9	1	7	3	n/a	n/a	n/a	n/a
645.6079922	1.600251581	1	8	1	9	1	8	3	n/a	n/a	n/a	n/a
647.2082437	1.600130286	1	9	1	9	1	9	3	n/a	n/a	n/a	n/a
648.808374	1.600232517	1	10	1	9	1	10	3	n/a	n/a	n/a	n/a
650.4086065	1.600252154	1	11	1	9	1	11	3	n/a	n/a	n/a	n/a
652.0088587	1.600224328	1	12	1	9	1	12	3	n/a	n/a	n/a	n/a
653.609083	1.600260912	1	13	1	1	2	1	2	9	n/a	654.2091786	n/a
655.2093439	1.600230675	1	14	1	1	2	2	2	9	n/a	655.809433	n/a
656.8095746	1.600230643	1	15	1	1	2	3	2	9	n/a	657.4096513	n/a
658.4098053	1.600169135	1	16	1	1	2	4	1	9	n/a	659.0099346	n/a
660.0099744	1.600420685	1	17	1	1	2	5	2	9	n/a	660.6102171	n/a
661.6103951	1.600247213	1	18	1	1	2	6	2	9	n/a	662.2105032	n/a
663.2106423	1.600122499	1	19	1	1	2	7	2	9	n/a	663.8107277	n/a
664.8107648	1.600251625	1	20	1	1	2	8	1	9	n/a	665.4108665	n/a
666.4110164	1.600216025	1	21	1	1	2	9	1	9	n/a	667.0110994	n/a
668.0112324	1.600268438	1	22	1	1	2	10	1	9	n/a	668.6113409	n/a
669.6115009	1.600249962	1	23	1	1	2	11	1	9	n/a	670.2115975	n/a
671.2117508	1.600212532	1	24	1	1	2	12	1	9	n/a	671.8118288	n/a
672.8119634	1.600258506	1	25	1	1	2	13	1	9	n/a	673.4120544	n/a
674.4122219	1.600242832	1	26	1	1	2	14	2	9	n/a	675.0123169	n/a
676.0124647	1.600276369	1	27	1	1	2	15	2	9	n/a	676.6125622	n/a
677.6127411	1.600277219	1	28	1	1	2	16	2	9	n/a	678.2128453	n/a
679.2130183	1.600280539	1	29	1	1	2	17	2	9	n/a	679.8131293	n/a
680.8132988	1.600218993	1	30	1	1	2	18	1	9	n/a	681.4133648	n/a
682.4135178	1.600135159	1	31	1	1	2	19	2	9	n/a	683.0134871	n/a
684.013653	1.600242149	1	32	1	1	2	20	2	9	n/a	684.6137416	n/a
685.6138951	1.600235561	1	33	1	1	2	21	1	9	n/a	686.2139877	n/a
687.2141307	1.600246441	1	34	1	1	2	22	1	9	n/a	687.8142342	n/a
688.8143771	1.60023311	1	35	1	1	2	23	1	9	n/a	689.4144672	n/a
690.4146103	1.600255361	1	36	1	1	2	24	2	9	n/a	691.0147062	n/a
692.0148656	1.600243323	1	37	1	9	3	1	3	n/a	n/a	n/a	n/a
693.6151089	1.600233652	1	38	1	9	3	2	3	n/a	n/a	n/a	n/a
695.2153426	1.600245032	1	39	1	9	3	3	3	n/a	n/a	n/a	n/a
696.8155876	1.600340727	1	40	1	9	3	4	3	n/a	n/a	n/a	n/a
698.4159283	1.600198986	1	41	1	9	3	5	3	n/a	n/a	n/a	n/a
700.0161273	1.60028043	1	42	1	9	3	6	3	n/a	n/a	n/a	n/a
701.6164078	1.600234026	1	43	1	9	3	7	3	n/a	n/a	n/a	n/a
703.2166418	1.600119433	1	44	1	9	3	8	3	n/a	n/a	n/a	n/a
704.8167612	1.600244285	1	45	1	9	3	9	3	n/a	n/a	n/a	n/a
706.4170055	1.600249309	1	46	1	9	3	10	3	n/a	n/a	n/a	n/a
708.0172548	1.60025839	1	47	1	9	3	11	3	n/a	n/a	n/a	n/a
709.6175132	1.600216083	1	48	1	9	3	12	3	n/a	n/a	n/a	n/a
711.2177293	1.600257425	1	49	1	3	4	1	2	9	n/a	711.8178349	n/a
712.8179867	1.600229445	1	50	1	3	4	2	1	9	n/a	713.4180674	n/a
714.4182162	1.600353743	1	51	1	3	4	3	1	9	n/a	715.0184082	n/a
716.0185699	1.600142967	1	52	1	3	4	4	1	9	n/a	716.6184731	n/a
717.6187129	1.60021239	1	53	1	3	4	5	1	9	n/a	718.2187926	n/a
719.2189253	1.600264403	1	54	1	3	4	6	2	9	n/a	719.8190168	n/a
720.8191897	1.600285611	1	55	1	3	4	7	1	9	n/a	721.4192725	n/a
722.4194753	1.600262897	1	56	1	3	4	8	1	9	n/a	723.0195697	n/a
724.0197382	1.600280648	1	57	1	3	4	9	2	9	n/a	724.6198616	n/a
725.6200188	1.600164829	1	58	1	3	4	10	2	9	n/a	726.2199833	n/a
727.2201836	1.600180993	1	59	1	3	4	11	2	9	n/a	727.8202214	n/a
728.8203646	1.600229829	1	60	1	3	4	12	2	9	n/a	729.4204645	n/a
730.4205945	1.600256261	1	61	1	3	4	13	2	9	n/a	731.0207035	n/a
732.0208507	1.600233104	1	62	1	3	4	14	2	9	n/a	732.6209272	n/a
733.6210838	1.600254788	1	63	1	3	4	15	1	9	n/a	734.2211843	n/a
735.2213386	1.600346772	1	64	1	3	4	16	2	9	n/a	735.821454	n/a
736.8216854	1.600117663	1	65	1	3	4	17	1	9	n/a	737.4216568	n/a
738.4218031	1.600243185	1	66	1	3	4	18	2	9	n/a	739.0218919	n/a
740.0220462	1.600239296	1	67	1	3	4	19	1	9	n/a	740.6221412	n/a
741.6222855	1.600239736	1	68	1	3	4	20	1	9	n/a	742.2223663	n/a
743.2225253	1.600244038	1	69	1	3	4	21	2	9	n/a	743.8226184	n/a
744.8227693	1.600238587	1	70	1	3	4	22	2	9	n/a	745.4229409	n/a
746.4230079	1.600241715	1	71	1	3	4	23	2	9	n/a	747.0230965	n/a
748.0232496	1.600262365	1	72	1	3	4	24	2	9	n/a	748.6233277	n/a
749.623512	1.600272581	1	73	1	9	5	1	3	n/a	n/a	n/a	n/a
751.2237846	1.600286942	1	74	1	9	5	2	3	n/a	n/a	n/a	n/a
752.8240715	1.600228541	1	75	1	9	5	3	3	n/a	n/a	n/a	n/a
754.4243	1.600128015	1	76	1	9	5	4	3	n/a	n/a	n/a	n/a
756.0244281	1.600238332	1	77	1	9	5	5	3	n/a	n/a	n/a	n/a
757.6246664	1.600255709	1	78	1	9	5	6	3	n/a	n/a	n/a	n/a
759.2249221	1.600216204	1	79	1	9	5	7	3	n/a	n/a	n/a	n/a
760.8251383	1.600254688	1	80	1	9	5	8	3	n/a	n/a	n/a	n/a
762.425393	1.600253377	1	81	1	9	5	9	3	n/a	n/a	n/a	n/a
764.0256464	1.600294203	1	82	1	9	5	10	3	n/a	n/a	n/a	n/a
765.6259406	1.600280817	1	83	1	9	5	11	3	n/a	n/a	n/a	n/a
767.2262214	1.600226652	1	84	1	9	5	12	3	n/a	n/a	n/a	n/a
768.826448	1.60011548	1	85	1	5	6	1	2	9	n/a	769.4264166	n/a
770.4265635	1.600238349	1	86	1	5	6	2	2	9	n/a	771.026656	n/a
772.0268019	1.600242778	1	87	1	5	6	3	1	9	n/a	772.6268968	n/a
773.6270446	1.600255851	1	88	1	5	6	4	1	9	n/a	774.2271465	n/a
775.2273005	1.600269723	1	89	1	5	6	5	2	9	n/a	775.8273969	n/a
776.8275702	1.600281565	1	90	1	5	6	6	2	9	n/a	777.4276786	n/a
778.4278518	1.6002868	1	91	1	5	6	7	2	9	n/a	779.0279462	n/a
780.0281386	1.600225887	1	92	1	5	6	8	2	9	n/a	780.628214	n/a
781.6283645	1.600113143	1	93	1	5	6	9	2	9	n/a	782.2283291	n/a
783.2284776	1.600235239	1	94	1	5	6	10	1	9	n/a	783.8285599	n/a
784.8287129	1.600249525	1	95	1	5	6	11	1	9	n/a	785.4288088	n/a
786.4289624	1.600259041	1	96	1	5	6	12	2	9	n/a	787.0290282	n/a
788.0292214	1.600231185	1	97	1	5	6	13	2	9	n/a	788.6293064	n/a
789.6294526	1.600229364	1	98	1	5	6	14	2	9	n/a	790.2295232	n/a
791.229682	1.600234277	1	99	1	5	6	15	1	9	n/a	791.8297749	n/a
792.8299162	1.600248404	1	100	1	5	6	16	2	9	n/a	793.4300226	n/a
794.4301646	1.600255358	1	101	1	5	6	17	2	9	n/a	795.0302595	n/a
796.03042	1.60023653	1	102	1	5	6	18	2	9	n/a	796.6304972	n/a
797.6306565	1.600227768	1	103	1	5	6	19	1	9	n/a	798.230748	n/a
799.2308843	1.600237264	1	104	1	5	6	20	1	9	n/a	799.8309866	n/a
800.8311216	1.600242997	1	105	1	5	6	21	1	9	n/a	801.4312093	n/a
802.4313646	1.600238015	1	106	1	5	6	22	1	9	n/a	803.0314582	n/a
804.0316026	1.600236723	1	107	1	5	6	23	1	9	n/a	804.6316864	n/a
805.6318393	1.600279132	1	108	1	5	6	24	2	9	n/a	806.2319439	n/a
807.2321184	1.600299213	1	109	1	9	7	1	3	n/a	n/a	n/a	n/a
808.8324176	1.600247698	1	110	1	9	7	2	3	n/a	n/a	n/a	n/a
810.4326653	1.600125972	1	111	1	9	7	3	3	n/a	n/a	n/a	n/a
812.0327913	1.600241846	1	112	1	9	7	4	3	n/a	n/a	n/a	n/a
813.6330332	1.600240162	1	113	1	9	7	5	3	n/a	n/a	n/a	n/a
815.2332733	1.600241119	1	114	1	9	7	6	3	n/a	n/a	n/a	n/a
816.8335144	1.608670694	1	115	1	9	7	7	3	n/a	n/a	n/a	n/a
818.4421851	1.600141541	1	116	1	9	7	8	3	n/a	n/a	n/a	n/a
820.0423267	1.600236893	1	117	1	9	7	9	3	n/a	n/a	n/a	n/a
821.6425636	1.600354789	1	118	1	9	7	10	3	n/a	n/a	n/a	n/a
823.2429184	1.600126487	1	119	1	9	7	11	3	n/a	n/a	n/a	n/a
824.8430448	1.600248785	1	120	1	9	7	12	3	n/a	n/a	n/a	n/a
826.4432936	1.600222859	1	121	1	7	8	1	1	9	n/a	827.0433823	n/a
828.0435165	1.600251848	1	122	1	7	8	2	1	9	n/a	828.643616	n/a
829.6437683	1.600244996	1	123	1	7	8	3	1	9	n/a	830.243859	n/a
831.2440133	1.600289688	1	124	1	7	8	4	2	9	n/a	831.8442007	n/a
832.844303	1.600282911	1	125	1	7	8	5	1	9	n/a	833.4444148	n/a
834.4445859	1.600250954	1	126	1	7	8	6	2	9	n/a	835.0446604	n/a
836.0448369	1.60011895	1	127	1	7	8	7	2	9	n/a	836.6448107	n/a
837.6449558	1.600285511	1	128	1	7	8	8	1	9	n/a	838.2450605	n/a
839.2452414	1.600280626	1	129	1	7	8	9	1	9	n/a	839.8453434	n/a
840.845522	1.60026873	1	130	1	7	8	10	2	9	n/a	841.4456103	n/a
842.4457907	1.600127779	1	131	1	7	8	11	1	9	n/a	843.0458828	n/a
844.0459185	1.60023077	1	132	1	7	8	12	2	9	n/a	844.6459975	n/a
845.6461493	1.600238629	1	133	1	7	8	13	1	9	n/a	846.2462407	n/a
847.2463879	1.600332431	1	134	1	7	8	14	1	9	n/a	847.8464824	n/a
848.8467203	1.600148754	1	135	1	7	8	15	1	9	n/a	849.4467106	n/a
850.4468691	1.600245948	1	136	1	7	8	16	2	9	n/a	851.0469683	n/a
852.047115	1.60024257	1	137	1	7	8	17	2	9	n/a	852.647204	n/a
853.6473576	1.600282	1	138	1	7	8	18	1	9	n/a	854.2474395	n/a
855.2476396	1.600276943	1	139	1	7	8	19	2	9	n/a	855.8477438	n/a
856.8479165	1.600268213	1	140	1	7	8	20	2	9	n/a	857.4480247	n/a
858.4481847	1.600118415	1	141	1	7	8	21	1	9	n/a	859.0482567	n/a
860.0483032	1.600237317	1	142	1	7	8	22	2	9	n/a	860.6483955	n/a
861.6485405	1.600242339	1	143	1	7	8	23	2	9	n/a	862.2486272	n/a
863.2487828	1.60023797	1	144	1	7	8	24	1	9	n/a	863.8488783	n/a
864.8490208	1.60024968	1	145	1	9	9	1	3	n/a	n/a	n/a	n/a
866.4492705	1.600238877	1	146	1	9	9	2	3	n/a	n/a	n/a	n/a
868.0495093	1.600242761	1	147	1	9	9	3	3	n/a	n/a	n/a	n/a
869.6497521	1.600229399	1	148	1	9	9	4	3	n/a	n/a	n/a	n/a
871.2499815	1.600277093	1	149	1	9	9	5	3	n/a	n/a	n/a	n/a
872.8502586	1.600283242	1	150	1	9	9	6	3	n/a	n/a	n/a	n/a
874.4505418	1.600251474	1	151	1	9	9	7	3	n/a	n/a	n/a	n/a
876.0507933	1.600248585	1	152	1	9	9	8	3	n/a	n/a	n/a	n/a
877.6510419	1.600124786	1	153	1	9	9	9	3	n/a	n/a	n/a	n/a
879.2511667	1.60025628	1	154	1	9	9	10	3	n/a	n/a	n/a	n/a
880.851423	1.600240394	1	155	1	9	9	11	3	n/a	n/a	n/a	n/a
882.4516634	1.600245459	1	156	1	9	9	12	3	n/a	n/a	n/a	n/a
