onset	duration	run_number	trial_number	att_task	bar_direction	bar_period	bar_step	stim_noise_ori	stim_stair_val	response_val	probe_time	reaction_time
344059.6056	1.602997961	1	1	1	9	1	1	3	n/a	n/a	n/a	n/a
344061.2086	1.600144826	1	2	1	9	1	2	3	n/a	n/a	n/a	n/a
344062.8088	1.600358537	1	3	1	9	1	3	3	n/a	n/a	n/a	n/a
344064.4091	1.600139619	1	4	1	9	1	4	3	n/a	n/a	n/a	n/a
344066.0093	1.600307709	1	5	1	9	1	5	3	n/a	n/a	n/a	n/a
344067.6096	1.600153612	1	6	1	9	1	6	3	n/a	n/a	n/a	n/a
344069.2097	1.600267051	1	7	1	9	1	7	3	n/a	n/a	n/a	n/a
344070.81	1.600301061	1	8	1	9	1	8	3	n/a	n/a	n/a	n/a
344072.4103	1.600217168	1	9	1	9	1	9	3	n/a	n/a	n/a	n/a
344074.0105	1.600079749	1	10	1	9	1	10	3	n/a	n/a	n/a	n/a
344075.6106	1.600376908	1	11	1	9	1	11	3	n/a	n/a	n/a	n/a
344077.211	1.600257618	1	12	1	9	1	12	3	n/a	n/a	n/a	n/a
344078.8112	1.600249934	1	13	1	1	2	1	2	9	n/a	344079.4113	n/a
344080.4115	1.600343495	1	14	1	1	2	2	1	9	n/a	344081.0116	n/a
344082.0118	1.600151314	1	15	1	1	2	3	2	9	n/a	344082.6118	n/a
344083.612	1.600237881	1	16	1	1	2	4	1	9	1	344084.2121	0.9067676472
344085.2122	1.60024145	1	17	1	1	2	5	2	9	n/a	344085.8123	n/a
344086.8125	1.600258526	1	18	1	1	2	6	2	9	n/a	344087.4126	n/a
344088.4127	1.600221071	1	19	1	1	2	7	2	9	0	344089.0128	0.5050560171
344090.0129	1.600237437	1	20	1	1	2	8	2	10	n/a	344090.6131	n/a
344091.6132	1.600260316	1	21	1	1	2	9	1	10	1	344092.2133	0.706200157
344093.2134	1.600247626	1	22	1	1	2	10	1	10	n/a	344093.8135	n/a
344094.8137	1.600228669	1	23	1	1	2	11	2	10	n/a	344095.4138	n/a
344096.4139	1.600386147	1	24	1	1	2	12	1	10	1	344097.0141	0.8116794199
344098.0143	1.600167576	1	25	1	1	2	13	2	10	n/a	344098.6144	n/a
344099.6145	1.600165469	1	26	1	1	2	14	1	10	0	344100.2146	0.7061198783
344101.2146	1.600277102	1	27	1	1	2	15	2	11	n/a	344101.8148	n/a
344102.8149	1.600267624	1	28	1	1	2	16	2	11	1	344103.415	0.5074843134
344104.4152	1.600238173	1	29	1	1	2	17	2	11	n/a	344105.0153	n/a
344106.0154	1.600227817	1	30	1	1	2	18	2	11	0	344106.6155	0.40716093
344107.6156	1.600254196	1	31	1	1	2	19	1	12	n/a	344108.2157	n/a
344109.2159	1.600245504	1	32	1	1	2	20	1	12	1	344109.816	0.3120406895
344110.8161	1.600246067	1	33	1	1	2	21	2	12	0	344111.4163	0.5050112239
344112.4164	1.60023353	1	34	1	1	2	22	2	13	1	344113.0165	0.8067475489
344114.0166	1.600250607	1	35	1	1	2	23	2	13	n/a	344114.6167	n/a
344115.6169	1.600237126	1	36	1	1	2	24	2	13	n/a	344116.2169	n/a
344117.2171	1.600264787	1	37	1	9	3	1	3	n/a	n/a	n/a	n/a
344118.8174	1.600341795	1	38	1	9	3	2	3	n/a	n/a	n/a	n/a
344120.4177	1.600135105	1	39	1	9	3	3	3	n/a	n/a	n/a	n/a
344122.0179	1.600240374	1	40	1	9	3	4	3	n/a	n/a	n/a	n/a
344123.6181	1.600259108	1	41	1	9	3	5	3	n/a	n/a	n/a	n/a
344125.2184	1.600237931	1	42	1	9	3	6	3	n/a	n/a	n/a	n/a
344126.8186	1.600236807	1	43	1	9	3	7	3	n/a	n/a	n/a	n/a
344128.4188	1.600300688	1	44	1	9	3	8	3	n/a	n/a	n/a	n/a
344130.0191	1.600288968	1	45	1	9	3	9	3	n/a	n/a	n/a	n/a
344131.6194	1.600249399	1	46	1	9	3	10	3	n/a	n/a	n/a	n/a
344133.2197	1.600121304	1	47	1	9	3	11	3	n/a	n/a	n/a	n/a
344134.8198	1.600254213	1	48	1	9	3	12	3	n/a	n/a	n/a	n/a
344136.42	1.600262508	1	49	1	3	4	1	1	13	1	344137.0201	0.8071966692
344138.0203	1.608581007	1	50	1	3	4	2	1	13	1	344138.6204	0.7061153982
344139.6289	1.600349648	1	51	1	3	4	3	2	12	1	344140.229	0.9067554901
344141.2292	1.600144438	1	52	1	3	4	4	2	12	1	344141.8292	0.8094208749
344142.8294	1.600278076	1	53	1	3	4	5	2	12	n/a	344143.4295	n/a
344144.4297	1.600282394	1	54	1	3	4	6	1	12	1	344145.0298	0.7058483756
344146.0299	1.600268582	1	55	1	3	4	7	2	11	n/a	344146.6301	n/a
344147.6302	1.600135529	1	56	1	3	4	8	2	11	1	344148.2303	0.9054302226
344149.2303	1.600259736	1	57	1	3	4	9	2	11	n/a	344149.8305	n/a
344150.8306	1.60023375	1	58	1	3	4	10	2	11	1	344151.4307	0.9050369901
344152.4308	1.600250732	1	59	1	3	4	11	1	11	1	344153.0309	0.6067970796
344154.0311	1.600244598	1	60	1	3	4	12	1	10	1	344154.6312	0.8053262503
344155.6313	1.600253893	1	61	1	3	4	13	2	10	1	344156.2314	0.60421363
344157.2316	1.600234983	1	62	1	3	4	14	1	10	1	344157.8317	0.5055041336
344158.8318	1.600248654	1	63	1	3	4	15	2	9	1	344159.4319	0.7057848577
344160.4321	1.600319712	1	64	1	3	4	16	1	9	1	344161.0322	0.6059507432
344162.0324	1.600236891	1	65	1	3	4	17	1	9	1	344162.6325	0.7065042989
344163.6326	1.600295342	1	66	1	3	4	18	1	8	1	344164.2328	0.603192358
344165.2329	1.600084494	1	67	1	3	4	19	2	8	1	344165.833	0.6031663926
344166.833	1.60025798	1	68	1	3	4	20	2	8	1	344167.4333	0.8056257821
344168.4333	1.6002531	1	69	1	3	4	21	1	7	1	344169.0335	0.4065454692
344170.0335	1.600264368	1	70	1	3	4	22	1	7	1	344170.6336	0.7061402263
344171.6338	1.600248464	1	71	1	3	4	23	1	7	1	344172.2339	0.6070026096
344173.234	1.600235753	1	72	1	3	4	24	1	6	n/a	344173.8341	n/a
344174.8343	1.60026061	1	73	1	9	5	1	3	n/a	n/a	n/a	n/a
344176.4345	1.600260447	1	74	1	9	5	2	3	n/a	n/a	n/a	n/a
344178.0348	1.600236144	1	75	1	9	5	3	3	n/a	n/a	n/a	n/a
344179.635	1.600218114	1	76	1	9	5	4	3	n/a	n/a	n/a	n/a
344181.2352	1.600257366	1	77	1	9	5	5	3	n/a	n/a	n/a	n/a
344182.8355	1.600279586	1	78	1	9	5	6	3	n/a	n/a	n/a	n/a
344184.4358	1.600277048	1	79	1	9	5	7	3	n/a	n/a	n/a	n/a
344186.0361	1.600296235	1	80	1	9	5	8	3	n/a	n/a	n/a	n/a
344187.6364	1.60011465	1	81	1	9	5	9	3	n/a	n/a	n/a	n/a
344189.2365	1.60024383	1	82	1	9	5	10	3	n/a	n/a	n/a	n/a
344190.8367	1.600254699	1	83	1	9	5	11	3	n/a	n/a	n/a	n/a
344192.437	1.600308323	1	84	1	9	5	12	3	n/a	n/a	n/a	n/a
344194.0373	1.600197353	1	85	1	5	6	1	1	6	1	344194.6372	0.8068522506
344195.6375	1.600353591	1	86	1	5	6	2	1	6	n/a	344196.2376	n/a
344197.2378	1.60009854	1	87	1	5	6	3	2	6	n/a	344197.8378	n/a
344198.8379	1.600283208	1	88	1	5	6	4	2	6	n/a	344199.4381	n/a
344200.4382	1.600230684	1	89	1	5	6	5	1	6	n/a	344201.0383	n/a
344202.0384	1.600263746	1	90	1	5	6	6	1	6	n/a	344202.6386	n/a
344203.6387	1.600354262	1	91	1	5	6	7	2	6	0	344204.2388	0.005040013464
344205.2391	1.600251604	1	92	1	5	6	8	1	7	1	344205.8391	0.2114208111
344206.8393	1.60021358	1	93	1	5	6	9	2	7	1	344207.4393	0.7063509169
344208.4395	1.600250749	1	94	1	5	6	10	2	7	1	344209.0396	0.8040049188
344210.0398	1.600120826	1	95	1	5	6	11	1	6	n/a	344210.6397	n/a
344211.6399	1.600251677	1	96	1	5	6	12	1	6	n/a	344212.24	n/a
344213.2401	1.600246703	1	97	1	5	6	13	2	6	n/a	344213.8402	n/a
344214.8404	1.600267213	1	98	1	5	6	14	1	6	1	344215.4405	-0.09159383317
344216.4407	1.60025484	1	99	1	5	6	15	2	6	1	344217.0407	0.006216890062
344218.0409	1.60022391	1	100	1	5	6	16	2	6	0	344218.641	0.7070608367
344219.6411	1.600253716	1	101	1	5	6	17	1	7	1	344220.2412	0.8049484803
344221.2414	1.600247277	1	102	1	5	6	18	1	7	1	344221.8414	0.8078848482
344222.8416	1.600257383	1	103	1	5	6	19	1	7	1	344223.4418	0.7066973192
344224.4419	1.600233453	1	104	1	5	6	20	2	6	1	344225.042	0.7048345202
344226.0421	1.60025287	1	105	1	5	6	21	1	6	0	344226.6422	0.70459291
344227.6424	1.600343588	1	106	1	5	6	22	1	7	1	344228.2425	0.5050694796
344229.2427	1.600114799	1	107	1	5	6	23	2	7	0	344229.8427	0.3056573638
344230.8428	1.600254826	1	108	1	5	6	24	1	8	1	344231.4429	0.4065129202
344232.4431	1.600281925	1	109	1	9	7	1	3	n/a	n/a	n/a	n/a
344234.0434	1.600284987	1	110	1	9	7	2	3	n/a	n/a	n/a	n/a
344235.6437	1.600285845	1	111	1	9	7	3	3	n/a	n/a	n/a	n/a
344237.244	1.60009576	1	112	1	9	7	4	3	n/a	n/a	n/a	n/a
344238.844	1.600273375	1	113	1	9	7	5	3	n/a	n/a	n/a	n/a
344240.4443	1.600308788	1	114	1	9	7	6	3	n/a	n/a	n/a	n/a
344242.0446	1.600205547	1	115	1	9	7	7	3	n/a	n/a	n/a	n/a
344243.6448	1.600228424	1	116	1	9	7	8	3	n/a	n/a	n/a	n/a
344245.2451	1.600259674	1	117	1	9	7	9	3	n/a	n/a	n/a	n/a
344246.8453	1.600247196	1	118	1	9	7	10	3	n/a	n/a	n/a	n/a
344248.4456	1.600288778	1	119	1	9	7	11	3	n/a	n/a	n/a	n/a
344250.0459	1.600300828	1	120	1	9	7	12	3	n/a	n/a	n/a	n/a
344251.6462	1.600232596	1	121	1	7	8	1	1	8	0	344252.2463	0.2056190355
344253.2464	1.60026832	1	122	1	7	8	2	1	9	1	344253.8465	0.5073044858
344254.8467	1.600095844	1	123	1	7	8	3	1	9	1	344255.4467	0.7074634091
344256.4468	1.600250786	1	124	1	7	8	4	2	9	1	344257.047	0.5047928286
344258.047	1.600272136	1	125	1	7	8	5	2	8	0	344258.6471	0.4069034624
344259.6473	1.600256952	1	126	1	7	8	6	1	9	1	344260.2475	0.5057625189
344261.2475	1.600225851	1	127	1	7	8	7	1	9	1	344261.8476	0.805334133
344262.8478	1.600254563	1	128	1	7	8	8	1	9	1	344263.4479	0.5066314337
344264.448	1.600243217	1	129	1	7	8	9	1	8	1	344265.0481	0.6069515698
344266.0483	1.600234643	1	130	1	7	8	10	2	8	1	344266.6484	0.4067667901
344267.6485	1.600258837	1	131	1	7	8	11	1	8	1	344268.2486	0.4038661367
344269.2488	1.60024808	1	132	1	7	8	12	1	7	1	344269.8489	0.6094517313
344270.849	1.600237997	1	133	1	7	8	13	1	7	1	344271.4491	0.5068107442
344272.4492	1.600248383	1	134	1	7	8	14	1	7	1	344273.0493	0.4067746036
344274.0495	1.600236074	1	135	1	7	8	15	2	6	1	344274.6496	0.6071134367
344275.6497	1.600240783	1	136	1	7	8	16	1	6	1	344276.2498	0.5073330367
344277.25	1.600358702	1	137	1	7	8	17	2	6	0	344277.8501	0.6075191668
344278.8503	1.600146008	1	138	1	7	8	18	1	7	1	344279.4503	0.7069626141
344280.4505	1.600246037	1	139	1	7	8	19	1	7	1	344281.0506	0.5074145938
344282.0507	1.600228513	1	140	1	7	8	20	1	7	0	344282.6508	0.4050865668
344283.6509	1.60027141	1	141	1	7	8	21	1	8	1	344284.251	0.70623976
344285.2512	1.608563317	1	142	1	7	8	22	1	8	1	344285.8513	0.9140201103
344286.8598	1.6002459	1	143	1	7	8	23	2	8	1	344287.4599	0.609921257
344288.46	1.600224102	1	144	1	7	8	24	1	7	0	344289.0602	0.5049673402
344290.0602	1.600268561	1	145	1	9	9	1	3	n/a	n/a	n/a	n/a
344291.6605	1.600348088	1	146	1	9	9	2	3	n/a	n/a	n/a	n/a
344293.2609	1.600121254	1	147	1	9	9	3	3	n/a	n/a	n/a	n/a
344294.861	1.600275069	1	148	1	9	9	4	3	n/a	n/a	n/a	n/a
344296.4613	1.600250887	1	149	1	9	9	5	3	n/a	n/a	n/a	n/a
344298.0615	1.600239843	1	150	1	9	9	6	3	n/a	n/a	n/a	n/a
344299.6618	1.600354141	1	151	1	9	9	7	3	n/a	n/a	n/a	n/a
344301.2621	1.600106039	1	152	1	9	9	8	3	n/a	n/a	n/a	n/a
344302.8622	1.600261509	1	153	1	9	9	9	3	n/a	n/a	n/a	n/a
344304.4625	1.600283556	1	154	1	9	9	10	3	n/a	n/a	n/a	n/a
344306.0628	1.608637393	1	155	1	9	9	11	3	n/a	n/a	n/a	n/a
344307.6714	1.600271743	1	156	1	9	9	12	3	n/a	n/a	n/a	n/a
