onset	duration	run_number	trial_number	att_task	bar_direction	bar_period	bar_step	stim_noise_ori	stim_stair_val	response_val	probe_time	reaction_time
12580.44775	1.60539074	2	1	1	9	1	1	3	n/a	n/a	n/a	n/a
12582.05314	1.600261019	2	2	1	9	1	2	3	n/a	n/a	n/a	n/a
12583.65341	1.600237326	2	3	1	9	1	3	3	n/a	n/a	n/a	n/a
12585.25364	1.600285914	2	4	1	9	1	4	3	n/a	n/a	n/a	n/a
12586.85393	1.60028449	2	5	1	9	1	5	3	n/a	n/a	n/a	n/a
12588.45421	1.600236592	2	6	1	9	1	6	3	n/a	n/a	n/a	n/a
12590.05445	1.600122375	2	7	1	9	1	7	3	n/a	n/a	n/a	n/a
12591.65457	1.600226063	2	8	1	9	1	8	3	n/a	n/a	n/a	n/a
12593.2548	1.600245126	2	9	1	9	1	9	3	n/a	n/a	n/a	n/a
12594.85504	1.60025193	2	10	1	9	1	10	3	n/a	n/a	n/a	n/a
12596.4553	1.600332255	2	11	1	9	1	11	3	n/a	n/a	n/a	n/a
12598.05563	1.60016969	2	12	1	9	1	12	3	n/a	n/a	n/a	n/a
12599.6558	1.60032827	2	13	1	1	2	1	2	4	0	12600.25595	0.611131426
12601.25613	1.600252397	2	14	1	1	2	2	2	5	0	12601.85622	0.5076409092
12602.85638	1.60011575	2	15	1	1	2	3	2	6	0	12603.45633	0.4112175559
12604.45649	1.600233592	2	16	1	1	2	4	1	7	0	12605.05656	0.5142295803
12606.05673	1.600224472	2	17	1	1	2	5	2	8	0	12606.65691	0.4134061123
12607.65695	1.600267004	2	18	1	1	2	6	1	9	1	12608.25706	0.5117678482
12609.25722	1.60025751	2	19	1	1	2	7	1	9	1	12609.85731	0.4132104307
12610.85748	1.600225589	2	20	1	1	2	8	2	9	1	12611.45756	0.5045235757
12612.4577	1.600227417	2	21	1	1	2	9	1	8	1	12613.05779	0.4128709688
12614.05793	1.600251705	2	22	1	1	2	10	2	8	1	12614.65798	0.6128405177
12615.65818	1.60025449	2	23	1	1	2	11	1	8	1	12616.25838	0.5061936435
12617.25844	1.600227369	2	24	1	1	2	12	1	7	1	12617.85852	0.5134027757
12618.85866	1.600241371	2	25	1	1	2	13	1	7	1	12619.45875	0.6130171077
12620.4589	1.600239742	2	26	1	1	2	14	2	7	1	12621.05899	0.5131069436
12622.05914	1.600262652	2	27	1	1	2	15	2	6	1	12622.65923	0.516502349
12623.65941	1.600213922	2	28	1	1	2	16	2	6	1	12624.25947	0.811754394
12625.25962	1.600234371	2	29	1	1	2	17	1	6	1	12625.85971	0.5119449284
12626.85986	1.600233154	2	30	1	1	2	18	1	5	1	12627.45995	0.6093823978
12628.46009	1.600313582	2	31	1	1	2	19	1	5	0	12629.06022	0.5103658138
12630.0604	1.600280166	2	32	1	1	2	20	1	6	1	12630.6605	0.5110344733
12631.66068	1.600235847	2	33	1	1	2	21	1	6	1	12632.26078	0.6088736329
12633.26092	1.600141308	2	34	1	1	2	22	2	6	1	12633.8609	0.8084567673
12634.86106	1.6002325	2	35	1	1	2	23	2	5	0	12635.46114	0.512998391
12636.46129	1.600232916	2	36	1	1	2	24	1	6	1	12637.06138	0.612445778
12638.06152	1.600242231	2	37	1	9	3	1	3	n/a	n/a	n/a	n/a
12639.66177	1.600243929	2	38	1	9	3	2	3	n/a	n/a	n/a	n/a
12641.26201	1.600243008	2	39	1	9	3	3	3	n/a	n/a	n/a	n/a
12642.86225	1.600237929	2	40	1	9	3	4	3	n/a	n/a	n/a	n/a
12644.46249	1.600231663	2	41	1	9	3	5	3	n/a	n/a	n/a	n/a
12646.06272	1.60025245	2	42	1	9	3	6	3	n/a	n/a	n/a	n/a
12647.66298	1.60022035	2	43	1	9	3	7	3	n/a	n/a	n/a	n/a
12649.2632	1.600312844	2	44	1	9	3	8	3	n/a	n/a	n/a	n/a
12650.86351	1.600178974	2	45	1	9	3	9	3	n/a	n/a	n/a	n/a
12652.46369	1.600228508	2	46	1	9	3	10	3	n/a	n/a	n/a	n/a
12654.06392	1.600249205	2	47	1	9	3	11	3	n/a	n/a	n/a	n/a
12655.66417	1.600234269	2	48	1	9	3	12	3	n/a	n/a	n/a	n/a
12657.2644	1.600247218	2	49	1	3	4	1	1	6	1	12657.86448	0.214601862
12658.86465	1.600236321	2	50	1	3	4	2	1	6	1	12659.46476	0.5110520566
12660.46488	1.600240196	2	51	1	3	4	3	1	5	1	12661.06497	0.7128953963
12662.06512	1.600225338	2	52	1	3	4	4	2	5	1	12662.66522	0.6125602703
12663.66535	1.600247769	2	53	1	3	4	5	1	5	1	12664.26545	0.7128274024
12665.2656	1.600244095	2	54	1	3	4	6	2	4	1	12665.86574	0.7114175802
12666.86584	1.600234382	2	55	1	3	4	7	2	4	1	12667.46593	0.713539736
12668.46608	1.600242871	2	56	1	3	4	8	1	4	1	12669.06617	0.5131752543
12670.06632	1.600271769	2	57	1	3	4	9	1	3	0	12670.66641	0.4112391994
12671.66659	1.600279566	2	58	1	3	4	10	2	4	1	12672.2667	0.5114161115
12673.26687	1.600264286	2	59	1	3	4	11	2	4	1	12673.86698	0.5103424718
12674.86713	1.600137778	2	60	1	3	4	12	2	4	n/a	12675.46724	n/a
12676.46727	1.600230047	2	61	1	3	4	13	2	4	n/a	12677.06735	n/a
12678.0675	1.600309753	2	62	1	3	4	14	2	4	n/a	12678.66762	n/a
12679.66781	1.600282019	2	63	1	3	4	15	2	4	n/a	12680.26792	n/a
12681.26809	1.600110937	2	64	1	3	4	16	2	4	n/a	12681.86818	n/a
12682.8682	1.600258202	2	65	1	3	4	17	1	4	1	12683.46842	0.6130697069
12684.46846	1.600227005	2	66	1	3	4	18	2	3	1	12685.06855	0.5131806406
12686.06869	1.600251658	2	67	1	3	4	19	1	3	1	12686.66879	0.5136526856
12687.66894	1.600252598	2	68	1	3	4	20	2	3	0	12688.26903	0.7129936146
12689.26919	1.600228111	2	69	1	3	4	21	1	4	0	12689.86928	0.6100744597
12690.86942	1.600233658	2	70	1	3	4	22	2	5	0	12691.46952	0.6091951314
12692.46966	1.600260752	2	71	1	3	4	23	2	6	n/a	12693.06976	n/a
12694.06992	1.600282261	2	72	1	3	4	24	2	6	1	12694.67003	0.4110172505
12695.6702	1.600281766	2	73	1	9	5	1	3	n/a	n/a	n/a	n/a
12697.27048	1.600241226	2	74	1	9	5	2	3	n/a	n/a	n/a	n/a
12698.87072	1.60023974	2	75	1	9	5	3	3	n/a	n/a	n/a	n/a
12700.47096	1.600102804	2	76	1	9	5	4	3	n/a	n/a	n/a	n/a
12702.07106	1.600254051	2	77	1	9	5	5	3	n/a	n/a	n/a	n/a
12703.67132	1.600248042	2	78	1	9	5	6	3	n/a	n/a	n/a	n/a
12705.27157	1.600245347	2	79	1	9	5	7	3	n/a	n/a	n/a	n/a
12706.87181	1.600233447	2	80	1	9	5	8	3	n/a	n/a	n/a	n/a
12708.47204	1.600258484	2	81	1	9	5	9	3	n/a	n/a	n/a	n/a
12710.0723	1.600241205	2	82	1	9	5	10	3	n/a	n/a	n/a	n/a
12711.67254	1.600275435	2	83	1	9	5	11	3	n/a	n/a	n/a	n/a
12713.27282	1.600289868	2	84	1	9	5	12	3	n/a	n/a	n/a	n/a
12714.87311	1.600252098	2	85	1	5	6	1	2	6	0	12715.47322	0.2119775565
12716.47336	1.600236147	2	86	1	5	6	2	2	7	1	12717.07344	0.2055029199
12718.0736	1.600124705	2	87	1	5	6	3	2	7	1	12718.67357	0.6103635352
12719.67372	1.600232976	2	88	1	5	6	4	2	7	0	12720.27381	0.5128716009
12721.27396	1.60025186	2	89	1	5	6	5	1	8	1	12721.87406	0.5106652383
12722.87421	1.600237531	2	90	1	5	6	6	1	8	0	12723.47429	0.5134147077
12724.47445	1.6002468	2	91	1	5	6	7	2	9	1	12725.07454	0.6126465223
12726.07469	1.60024254	2	92	1	5	6	8	2	9	1	12726.67486	0.5082716107
12727.67493	1.600227613	2	93	1	5	6	9	1	9	1	12728.27501	0.61314762
12729.27516	1.600253508	2	94	1	5	6	10	1	8	1	12729.87525	0.612911791
12730.87542	1.600229816	2	95	1	5	6	11	2	8	1	12731.47548	0.5086133597
12732.47565	1.600279232	2	96	1	5	6	12	2	8	1	12733.07575	0.6121604551
12734.07592	1.600306561	2	97	1	5	6	13	2	7	1	12734.67603	0.6113866413
12735.67623	1.60024387	2	98	1	5	6	14	1	7	1	12736.27632	0.6113031565
12737.27648	1.600087217	2	99	1	5	6	15	2	7	1	12737.87656	0.5132039909
12738.87656	1.600250829	2	100	1	5	6	16	1	6	1	12739.47667	0.5130439986
12740.47681	1.600256752	2	101	1	5	6	17	1	6	1	12741.07691	0.7131264413
12742.07707	1.600247571	2	102	1	5	6	18	1	6	1	12742.67717	0.6086315444
12743.67732	1.600350231	2	103	1	5	6	19	2	5	1	12744.27741	0.509350036
12745.27767	1.60013685	2	104	1	5	6	20	1	5	1	12745.87765	0.7130100016
12746.8778	1.600227631	2	105	1	5	6	21	2	5	1	12747.47787	0.8129226963
12748.47803	1.600243343	2	106	1	5	6	22	1	4	1	12749.07812	0.7123124803
12750.07828	1.600243031	2	107	1	5	6	23	2	4	0	12750.67836	0.8091268139
12751.67852	1.600231815	2	108	1	5	6	24	2	5	0	12752.2787	0.5108251092
12753.27875	1.60024339	2	109	1	9	7	1	3	n/a	n/a	n/a	n/a
12754.87899	1.600267107	2	110	1	9	7	2	3	n/a	n/a	n/a	n/a
12756.47926	1.600281614	2	111	1	9	7	3	3	n/a	n/a	n/a	n/a
12758.07954	1.600278514	2	112	1	9	7	4	3	n/a	n/a	n/a	n/a
12759.67982	1.600140531	2	113	1	9	7	5	3	n/a	n/a	n/a	n/a
12761.27996	1.60021685	2	114	1	9	7	6	3	n/a	n/a	n/a	n/a
12762.88018	1.600246439	2	115	1	9	7	7	3	n/a	n/a	n/a	n/a
12764.48042	1.600251879	2	116	1	9	7	8	3	n/a	n/a	n/a	n/a
12766.08068	1.600229058	2	117	1	9	7	9	3	n/a	n/a	n/a	n/a
12767.68091	1.600251473	2	118	1	9	7	10	3	n/a	n/a	n/a	n/a
12769.28116	1.600310765	2	119	1	9	7	11	3	n/a	n/a	n/a	n/a
12770.88147	1.600166859	2	120	1	9	7	12	3	n/a	n/a	n/a	n/a
12772.48163	1.600231221	2	121	1	7	8	1	2	6	0	12773.08171	0.2196249757
12774.08187	1.600243531	2	122	1	7	8	2	2	7	0	12774.68195	0.5039283833
12775.68211	1.60024306	2	123	1	7	8	3	2	8	1	12776.28219	0.6115759841
12777.28235	1.600239045	2	124	1	7	8	4	2	8	1	12777.88244	0.5128560253
12778.88259	1.600232976	2	125	1	7	8	5	1	8	1	12779.48274	0.508354552
12780.48282	1.600236798	2	126	1	7	8	6	1	7	1	12781.08291	0.7058094307
12782.08306	1.600249121	2	127	1	7	8	7	2	7	1	12782.68316	0.608982507
12783.68331	1.600265094	2	128	1	7	8	8	2	7	0	12784.2834	0.6126474123
12785.28358	1.600280534	2	129	1	7	8	9	1	8	1	12785.88367	0.3077393986
12786.88386	1.600278638	2	130	1	7	8	10	1	8	1	12787.48397	0.5111907558
12788.48414	1.600120547	2	131	1	7	8	11	1	8	1	12789.08422	0.5040958145
12790.08426	1.600239913	2	132	1	7	8	12	2	7	1	12790.68434	0.4135321307
12791.6845	1.600239742	2	133	1	7	8	13	1	7	1	12792.28458	0.5132780956
12793.28474	1.600242618	2	134	1	7	8	14	1	7	1	12793.88483	0.7125500016
12794.88498	1.600228801	2	135	1	7	8	15	1	6	1	12795.48505	0.5134573032
12796.48521	1.600254136	2	136	1	7	8	16	1	6	1	12797.0853	0.613378162
12798.08546	1.600286385	2	137	1	7	8	17	2	6	1	12798.68557	0.4125730421
12799.68575	1.600284614	2	138	1	7	8	18	2	5	0	12800.28585	0.5101939283
12801.28603	1.600255976	2	139	1	7	8	19	2	6	0	12801.88613	0.5065836199
12802.88629	1.600223324	2	140	1	7	8	20	2	7	1	12803.48638	0.6092664145
12804.48651	1.600251753	2	141	1	7	8	21	1	7	1	12805.08661	0.5112089329
12806.08676	1.600097082	2	142	1	7	8	22	1	7	1	12806.68685	0.4081858351
12807.68686	1.600247615	2	143	1	7	8	23	2	6	0	12808.28695	0.4135971849
12809.28711	1.600248309	2	144	1	7	8	24	1	7	1	12809.88721	0.5092606039
12810.88736	1.60029762	2	145	1	9	9	1	3	n/a	n/a	n/a	n/a
12812.48765	1.600295837	2	146	1	9	9	2	3	n/a	n/a	n/a	n/a
12814.08795	1.600247636	2	147	1	9	9	3	3	n/a	n/a	n/a	n/a
12815.6882	1.600096114	2	148	1	9	9	4	3	n/a	n/a	n/a	n/a
12817.28829	1.600246508	2	149	1	9	9	5	3	n/a	n/a	n/a	n/a
12818.88854	1.600238749	2	150	1	9	9	6	3	n/a	n/a	n/a	n/a
12820.48878	1.600259337	2	151	1	9	9	7	3	n/a	n/a	n/a	n/a
12822.08904	1.600248725	2	152	1	9	9	8	3	n/a	n/a	n/a	n/a
12823.68929	1.600245792	2	153	1	9	9	9	3	n/a	n/a	n/a	n/a
12825.28953	1.600239689	2	154	1	9	9	10	3	n/a	n/a	n/a	n/a
12826.88977	1.600237469	2	155	1	9	9	11	3	n/a	n/a	n/a	n/a
12828.49001	1.600237113	2	156	1	9	9	12	3	n/a	n/a	n/a	n/a
