onset	duration	run_number	trial_number	att_task	bar_direction	bar_period	bar_step	stim_noise_ori	stim_stair_val	response_val	probe_time	reaction_time
16505.72655	3.1408388	1	1	1	9	1	1	3	n/a	n/a	n/a	n/a
16508.86739	2.5495227	1	2	1	9	1	2	3	n/a	n/a	n/a	n/a
16511.41691	2.457951	1	3	1	9	1	3	3	n/a	n/a	n/a	n/a
16513.87486	2.5580202	1	4	1	9	1	4	3	n/a	n/a	n/a	n/a
16516.43288	2.4662442	1	5	1	9	1	5	3	n/a	n/a	n/a	n/a
16518.89913	2.5996881	1	6	1	9	1	6	3	n/a	n/a	n/a	n/a
16521.49881	2.4579597	1	7	1	9	1	7	3	n/a	n/a	n/a	n/a
16523.95677	2.6162388	1	8	1	9	1	8	3	n/a	n/a	n/a	n/a
16526.57301	2.5997381	1	9	1	9	1	9	3	n/a	n/a	n/a	n/a
16529.17275	2.666269	1	10	1	9	1	10	3	n/a	n/a	n/a	n/a
16531.83902	2.6078686	1	11	1	9	1	11	3	n/a	n/a	n/a	n/a
16534.44689	2.6162847	1	12	1	9	1	12	3	n/a	n/a	n/a	n/a
16537.06317	2.6412836	1	13	1	1	2	1	1	15	n/a	16538.06303	n/a
16539.70446	2.5995765	1	14	1	1	2	2	2	15	n/a	16540.67094	n/a
16542.30403	2.6996589	1	15	1	1	2	3	2	15	n/a	16543.32894	n/a
16545.00369	2.5413031	1	16	1	1	2	4	2	15	n/a	16545.94523	n/a
16547.54499	2.6580011	1	17	1	1	2	5	2	15	n/a	16548.52818	n/a
16550.203	2.7661947	1	18	1	1	2	6	2	15	n/a	16551.18615	n/a
16552.96919	2.7412727	1	19	1	1	2	7	2	15	n/a	16554.00239	n/a
16555.71046	2.724783946	1	20	1	1	2	8	1	15	n/a	16556.71864	n/a
16558.43525	2.699387254	1	21	1	1	2	9	2	15	n/a	16559.40992	n/a
16561.13463	2.7163004	1	22	1	1	2	10	2	15	n/a	16562.13451	n/a
16563.85093	2.7746025	1	23	1	1	2	11	1	15	n/a	16564.98411	n/a
16566.62554	2.7496059	1	24	1	1	2	12	2	15	n/a	16567.60041	n/a
16569.37514	2.5996505	1	25	1	1	2	13	2	15	n/a	16570.35018	n/a
16571.97479	2.6330441	1	26	1	1	2	14	1	15	n/a	16572.94129	n/a
16574.60784	3.066092	1	27	1	1	2	15	2	15	n/a	16575.92427	n/a
16577.67393	2.8578817	1	28	1	1	2	16	2	15	n/a	16578.67382	n/a
16580.53181	2.8829216	1	29	1	1	2	17	1	15	n/a	16581.59002	n/a
16583.41473	2.8829598	1	30	1	1	2	18	1	15	n/a	16584.50646	n/a
16586.29769	2.791219	1	31	1	1	2	19	1	15	n/a	16587.36417	n/a
16589.08891	2.7329018	1	32	1	1	2	20	2	15	n/a	16590.12212	n/a
16591.82181	2.6829306	1	33	1	1	2	21	1	15	n/a	16592.83837	n/a
16594.50474	2.6330994	1	34	1	1	2	22	2	15	n/a	16595.51317	n/a
16597.13784	2.6328612	1	35	1	1	2	23	2	15	n/a	16598.13761	n/a
16599.7707	2.6162932	1	36	1	1	2	24	2	15	n/a	16600.73732	n/a
16602.387	2.5413085	1	37	1	9	3	1	3	n/a	n/a	n/a	n/a
16604.92831	2.5496284	1	38	1	9	3	2	3	n/a	n/a	n/a	n/a
16607.47793	2.5912899	1	39	1	9	3	3	3	n/a	n/a	n/a	n/a
16610.06922	2.6246788	1	40	1	9	3	4	3	n/a	n/a	n/a	n/a
16612.6939	2.5994893	1	41	1	9	3	5	3	n/a	n/a	n/a	n/a
16615.29339	2.6665033	1	42	1	9	3	6	3	n/a	n/a	n/a	n/a
16617.9599	2.7327746	1	43	1	9	3	7	3	n/a	n/a	n/a	n/a
16620.69267	2.5996036	1	44	1	9	3	8	3	n/a	n/a	n/a	n/a
16623.29227	2.6496189	1	45	1	9	3	9	3	n/a	n/a	n/a	n/a
16625.94189	2.474647	1	46	1	9	3	10	3	n/a	n/a	n/a	n/a
16628.41654	2.5829179	1	47	1	9	3	11	3	n/a	n/a	n/a	n/a
16630.99946	2.5996506	1	48	1	9	3	12	3	n/a	n/a	n/a	n/a
16633.59911	2.6746248	1	49	1	3	4	1	2	15	n/a	16634.59893	n/a
16636.27373	2.5330635	1	50	1	3	4	2	1	15	n/a	16637.24854	n/a
16638.8068	2.7327954	1	51	1	3	4	3	1	15	n/a	16639.82319	n/a
16641.53959	2.8079183	1	52	1	3	4	4	2	15	n/a	16642.54774	n/a
16644.34751	2.8745785	1	53	1	3	4	5	2	15	n/a	16645.51402	n/a
16647.22209	3.033016	1	54	1	3	4	6	2	15	n/a	16648.38025	n/a
16650.25511	3.0411335	1	55	1	3	4	7	2	15	n/a	16651.35486	n/a
16653.29624	3.1911716	1	56	1	3	4	8	2	15	n/a	16654.55438	n/a
16656.48741	3.0662575	1	57	1	3	4	9	1	15	n/a	16657.64568	n/a
16659.55367	3.0912142	1	58	1	3	4	10	1	15	n/a	16660.6785	n/a
16662.64488	2.732932	1	59	1	3	4	11	2	15	n/a	16663.69468	n/a
16665.37781	2.7079337	1	60	1	3	4	12	2	15	n/a	16666.41099	n/a
16668.08575	2.7745685	1	61	1	3	4	13	2	15	n/a	16669.16894	n/a
16670.86032	2.8329012	1	62	1	3	4	14	2	15	n/a	16671.91019	n/a
16673.69322	2.8912905	1	63	1	3	4	15	2	15	n/a	16674.80974	n/a
16676.58451	2.8829284	1	64	1	3	4	16	2	15	n/a	16677.62603	n/a
16679.46744	2.9662282	1	65	1	3	4	17	2	15	n/a	16680.55068	n/a
16682.43366	2.949638	1	66	1	3	4	18	2	15	n/a	16683.50856	n/a
16685.3833	3.0078188	1	67	1	3	4	19	1	15	n/a	16686.62469	n/a
16688.39112	2.6496149	1	68	1	3	4	20	1	15	n/a	16689.37431	n/a
16691.04074	2.691401	1	69	1	3	4	21	1	15	n/a	16692.07392	n/a
16693.73214	2.6911528	1	70	1	3	4	22	2	15	n/a	16694.72355	n/a
16696.42329	2.6245655	1	71	1	3	4	23	2	15	n/a	16697.43977	n/a
16699.04786	2.6329638	1	72	1	3	4	24	1	15	n/a	16699.98937	n/a
16701.68082	2.949781578	1	73	1	9	5	1	3	n/a	n/a	n/a	n/a
16704.6306	2.766144122	1	74	1	9	5	2	3	n/a	n/a	n/a	n/a
16707.39675	2.8662025	1	75	1	9	5	3	3	n/a	n/a	n/a	n/a
16710.26295	2.7912386	1	76	1	9	5	4	3	n/a	n/a	n/a	n/a
16713.05419	2.749602	1	77	1	9	5	5	3	n/a	n/a	n/a	n/a
16715.80379	2.6995805	1	78	1	9	5	6	3	n/a	n/a	n/a	n/a
16718.50337	2.9996051	1	79	1	9	5	7	3	n/a	n/a	n/a	n/a
16721.50297	2.7162513	1	80	1	9	5	8	3	n/a	n/a	n/a	n/a
16724.21923	2.7996111	1	81	1	9	5	9	3	n/a	n/a	n/a	n/a
16727.01884	2.8495744	1	82	1	9	5	10	3	n/a	n/a	n/a	n/a
16729.86841	2.6496395	1	83	1	9	5	11	3	n/a	n/a	n/a	n/a
16732.51805	2.633012	1	84	1	9	5	12	3	n/a	n/a	n/a	n/a
16735.15106	2.8244799	1	85	1	5	6	1	2	15	n/a	16736.33414	n/a
16737.97554	2.6830165	1	86	1	5	6	2	1	15	n/a	16739.00874	n/a
16740.65856	2.7495244	1	87	1	5	6	3	1	15	n/a	16741.75	n/a
16743.40808	2.6912796	1	88	1	5	6	4	2	15	n/a	16744.40794	n/a
16746.09936	2.657933	1	89	1	5	6	5	1	15	n/a	16747.11589	n/a
16748.7573	2.7829428	1	90	1	5	6	6	2	15	n/a	16749.78218	n/a
16751.54024	2.7079118	1	91	1	5	6	7	1	15	n/a	16752.53186	n/a
16754.24815	2.7579574	1	92	1	5	6	8	1	15	n/a	16755.2897	n/a
16757.00611	2.8079034	1	93	1	5	6	9	1	15	n/a	16758.11432	n/a
16759.81401	2.791326	1	94	1	5	6	10	1	15	n/a	16760.87222	n/a
16762.60534	2.7162293	1	95	1	5	6	11	2	15	n/a	16763.60511	n/a
16765.32157	2.6662587	1	96	1	5	6	12	1	15	n/a	16766.33811	n/a
16767.98783	2.8162648	1	97	1	5	6	13	2	15	n/a	16769.02938	n/a
16770.80409	2.8496125	1	98	1	5	6	14	1	15	n/a	16771.83733	n/a
16773.6537	2.7746999	1	99	1	5	6	15	1	15	n/a	16774.6869	n/a
16776.4284	2.8328182	1	100	1	5	6	16	2	15	n/a	16777.55322	n/a
16779.26122	2.8495831	1	101	1	5	6	17	1	15	n/a	16780.36939	n/a
16782.1108	2.8247353	1	102	1	5	6	18	2	15	n/a	16783.19403	n/a
16784.93554	2.749439	1	103	1	5	6	19	1	15	n/a	16785.91853	n/a
16787.68498	2.724647	1	104	1	5	6	20	2	15	n/a	16788.72658	n/a
16790.40962	2.7412113	1	105	1	5	6	21	1	15	n/a	16791.40957	n/a
16793.15084	2.7163594	1	106	1	5	6	22	2	15	n/a	16794.20069	n/a
16795.8672	2.6413583	1	107	1	5	6	23	2	15	n/a	16796.88368	n/a
16798.50855	2.5661655	1	108	1	5	6	24	2	15	n/a	16799.42495	n/a
16801.07472	2.5329597	1	109	1	9	7	1	3	n/a	n/a	n/a	n/a
16803.60768	2.6579237	1	110	1	9	7	2	3	n/a	n/a	n/a	n/a
16806.2656	2.5163063	1	111	1	9	7	3	3	n/a	n/a	n/a	n/a
16808.78191	2.5746496	1	112	1	9	7	4	3	n/a	n/a	n/a	n/a
16811.35656	2.5912486	1	113	1	9	7	5	3	n/a	n/a	n/a	n/a
16813.94781	2.5163352	1	114	1	9	7	6	3	n/a	n/a	n/a	n/a
16816.46414	2.5163123	1	115	1	9	7	7	3	n/a	n/a	n/a	n/a
16818.98045	2.4746124	1	116	1	9	7	8	3	n/a	n/a	n/a	n/a
16821.45507	2.4913232	1	117	1	9	7	9	3	n/a	n/a	n/a	n/a
16823.94639	2.5413011	1	118	1	9	7	10	3	n/a	n/a	n/a	n/a
16826.48769	2.4579853	1	119	1	9	7	11	3	n/a	n/a	n/a	n/a
16828.94568	2.6579148	1	120	1	9	7	12	3	n/a	n/a	n/a	n/a
16831.60359	2.5996626	1	121	1	7	8	1	2	15	n/a	16832.57843	n/a
16834.20325	2.6662477	1	122	1	7	8	2	1	15	n/a	16835.20307	n/a
16836.8695	2.6579503	1	123	1	7	8	3	2	15	n/a	16837.86933	n/a
16839.52745	2.6495697	1	124	1	7	8	4	1	15	n/a	16840.5356	n/a
16842.17702	2.6496331	1	125	1	7	8	5	2	15	n/a	16843.14365	n/a
16844.82665	2.6745694	1	126	1	7	8	6	2	15	n/a	16845.84317	n/a
16847.50122	2.6829985	1	127	1	7	8	7	2	15	n/a	16848.50112	n/a
16850.18422	2.8079316	1	128	1	7	8	8	1	15	n/a	16851.23408	n/a
16852.99215	2.8329205	1	129	1	7	8	9	2	15	n/a	16854.02534	n/a
16855.82507	2.7495986	1	130	1	7	8	10	2	15	n/a	16856.88324	n/a
16858.57467	2.6995978	1	131	1	7	8	11	1	15	n/a	16859.58302	n/a
16861.27427	2.7495843	1	132	1	7	8	12	2	15	n/a	16862.28248	n/a
16864.02386	2.8329145	1	133	1	7	8	13	2	15	n/a	16865.13205	n/a
16866.85677	2.8829409	1	134	1	7	8	14	2	15	n/a	16867.89828	n/a
16869.73971	2.7995771	1	135	1	7	8	15	2	15	n/a	16870.76456	n/a
16872.53929	2.9079344	1	136	1	7	8	16	2	15	n/a	16873.63082	n/a
16875.44722	2.7412661	1	137	1	7	8	17	1	15	n/a	16876.48882	n/a
16878.18849	2.782921	1	138	1	7	8	18	1	15	n/a	16879.22186	n/a
16880.97141	2.7245991	1	139	1	7	8	19	1	15	n/a	16882.01311	n/a
16883.69601	2.7496176	1	140	1	7	8	20	1	15	n/a	16884.72086	n/a
16886.44563	2.7162459	1	141	1	7	8	21	2	15	n/a	16887.46214	n/a
16889.16187	2.7164412	1	142	1	7	8	22	2	15	n/a	16890.1784	n/a
16891.87831	2.6660728	1	143	1	7	8	23	2	15	n/a	16892.88632	n/a
16894.54439	2.5079959	1	144	1	7	8	24	2	15	n/a	16895.49431	n/a
16897.05238	2.4662779	1	145	1	9	9	1	3	n/a	n/a	n/a	n/a
16899.51866	2.5913344	1	146	1	9	9	2	3	n/a	n/a	n/a	n/a
16902.10999	2.6579052	1	147	1	9	9	3	3	n/a	n/a	n/a	n/a
16904.7679	2.7496652	1	148	1	9	9	4	3	n/a	n/a	n/a	n/a
16907.51756	2.6412619	1	149	1	9	9	5	3	n/a	n/a	n/a	n/a
16910.15883	2.6079503	1	150	1	9	9	6	3	n/a	n/a	n/a	n/a
16912.76678	2.6330753	1	151	1	9	9	7	3	n/a	n/a	n/a	n/a
16915.39985	2.6078387	1	152	1	9	9	8	3	n/a	n/a	n/a	n/a
16918.00769	2.5662714	1	153	1	9	9	9	3	n/a	n/a	n/a	n/a
16920.57396	2.5413067	1	154	1	9	9	10	3	n/a	n/a	n/a	n/a
16923.11527	2.5413154	1	155	1	9	9	11	3	n/a	n/a	n/a	n/a
16925.65658	2.4662707	1	156	1	9	9	12	3	n/a	n/a	n/a	n/a
