onset	duration	run_number	trial_number	att_task	bar_direction	bar_period	bar_step	stim_noise_ori	stim_stair_val	response_val	probe_time	reaction_time
101470.0391	1.604246222	1	1	1	9	1	1	3	n/a	n/a	n/a	n/a
101471.6433	1.600246288	1	2	1	9	1	2	3	n/a	n/a	n/a	n/a
101473.2436	1.600249986	1	3	1	9	1	3	3	n/a	n/a	n/a	n/a
101474.8438	1.600244716	1	4	1	9	1	4	3	n/a	n/a	n/a	n/a
101476.4441	1.600231736	1	5	1	9	1	5	3	n/a	n/a	n/a	n/a
101478.0443	1.600244284	1	6	1	9	1	6	3	n/a	n/a	n/a	n/a
101479.6445	1.600275287	1	7	1	9	1	7	3	n/a	n/a	n/a	n/a
101481.2448	1.600286	1	8	1	9	1	8	3	n/a	n/a	n/a	n/a
101482.8451	1.600276128	1	9	1	9	1	9	3	n/a	n/a	n/a	n/a
101484.4454	1.600124344	1	10	1	9	1	10	3	n/a	n/a	n/a	n/a
101486.0455	1.600364558	1	11	1	9	1	11	3	n/a	n/a	n/a	n/a
101487.6459	1.600093797	1	12	1	9	1	12	3	n/a	n/a	n/a	n/a
101489.246	1.600345262	1	13	1	1	2	1	2	9	n/a	101489.8461	n/a
101490.8463	1.600150749	1	14	1	1	2	2	1	9	1	101491.4463	0.5072292368
101492.4465	1.600272984	1	15	1	1	2	3	2	9	1	101493.0466	0.6050915348
101494.0467	1.60024987	1	16	1	1	2	4	1	9	1	101494.6468	0.5061968819
101495.647	1.600217565	1	17	1	1	2	5	2	8	1	101496.2471	0.6053995329
101497.2472	1.600286578	1	18	1	1	2	6	2	8	1	101497.8473	0.8040484142
101498.8475	1.600332995	1	19	1	1	2	7	2	8	n/a	101499.4476	n/a
101500.4478	1.6002404	1	20	1	1	2	8	2	8	1	101501.0479	0.5047195099
101502.0481	1.600212113	1	21	1	1	2	9	2	7	1	101502.6482	0.7073418746
101503.6483	1.600118364	1	22	1	1	2	10	2	7	1	101504.2483	0.5098962938
101505.2484	1.600285904	1	23	1	1	2	11	2	7	1	101505.8485	0.5051912398
101506.8487	1.600216868	1	24	1	1	2	12	2	6	1	101507.4488	0.4054454554
101508.4489	1.600274212	1	25	1	1	2	13	1	6	1	101509.0491	0.8065844442
101510.0492	1.600238547	1	26	1	1	2	14	2	6	1	101510.6493	0.6046464142
101511.6494	1.600253847	1	27	1	1	2	15	1	5	1	101512.2495	0.7050584936
101513.2497	1.600241815	1	28	1	1	2	16	2	5	1	101513.8498	0.6046084162
101514.8499	1.600239491	1	29	1	1	2	17	2	5	n/a	101515.45	n/a
101516.4501	1.600244451	1	30	1	1	2	18	2	5	0	101517.0502	0.5078354671
101518.0504	1.600212833	1	31	1	1	2	19	2	6	1	101518.6505	0.006733814225
101519.6506	1.600273823	1	32	1	1	2	20	2	6	1	101520.2507	0.8103014672
101521.2509	1.600300472	1	33	1	1	2	21	1	6	n/a	101521.851	n/a
101522.8512	1.60027818	1	34	1	1	2	22	2	6	0	101523.4513	0.4053566512
101524.4515	1.600124882	1	35	1	1	2	23	2	7	n/a	101525.0514	n/a
101526.0516	1.600308834	1	36	1	1	2	24	2	7	n/a	101526.6517	n/a
101527.6519	1.600273134	1	37	1	9	3	1	3	n/a	n/a	n/a	n/a
101529.2522	1.600165688	1	38	1	9	3	2	3	n/a	n/a	n/a	n/a
101530.8523	1.60024204	1	39	1	9	3	3	3	n/a	n/a	n/a	n/a
101532.4526	1.600235092	1	40	1	9	3	4	3	n/a	n/a	n/a	n/a
101534.0528	1.600088527	1	41	1	9	3	5	3	n/a	n/a	n/a	n/a
101535.6529	1.600400969	1	42	1	9	3	6	3	n/a	n/a	n/a	n/a
101537.2533	1.600257137	1	43	1	9	3	7	3	n/a	n/a	n/a	n/a
101538.8536	1.600253771	1	44	1	9	3	8	3	n/a	n/a	n/a	n/a
101540.4538	1.600238639	1	45	1	9	3	9	3	n/a	n/a	n/a	n/a
101542.054	1.600289549	1	46	1	9	3	10	3	n/a	n/a	n/a	n/a
101543.6543	1.600270574	1	47	1	9	3	11	3	n/a	n/a	n/a	n/a
101545.2546	1.60025936	1	48	1	9	3	12	3	n/a	n/a	n/a	n/a
101546.8549	1.600139774	1	49	1	3	4	1	1	7	n/a	101547.4548	n/a
101548.455	1.6002325	1	50	1	3	4	2	1	7	n/a	101549.0551	n/a
101550.0552	1.600266012	1	51	1	3	4	3	2	7	1	101550.6553	0.006874574072
101551.6555	1.60024496	1	52	1	3	4	4	1	7	n/a	101552.2556	n/a
101553.2557	1.60021803	1	53	1	3	4	5	2	7	n/a	101553.8558	n/a
101554.856	1.600291109	1	54	1	3	4	6	1	7	n/a	101555.4561	n/a
101556.4563	1.600200018	1	55	1	3	4	7	2	7	n/a	101557.0563	n/a
101558.0565	1.60027082	1	56	1	3	4	8	2	7	n/a	101558.6566	n/a
101559.6567	1.600295316	1	57	1	3	4	9	2	7	0	101560.2568	0.8052991838
101561.257	1.600172757	1	58	1	3	4	10	2	8	0	101561.857	0.7053336123
101562.8572	1.600234912	1	59	1	3	4	11	2	9	0	101563.4573	0.5088415535
101564.4574	1.600253697	1	60	1	3	4	12	2	10	0	101565.0575	0.5066094348
101566.0577	1.600265335	1	61	1	3	4	13	2	11	0	101566.6578	0.5066962808
101567.6579	1.60018424	1	62	1	3	4	14	1	12	0	101568.258	0.5068140329
101569.2581	1.600301666	1	63	1	3	4	15	1	13	0	101569.8582	0.7066964329
101570.8584	1.6002809	1	64	1	3	4	16	2	14	0	101571.4585	0.7090832327
101572.4587	1.600292665	1	65	1	3	4	17	2	15	0	101573.0588	0.5032790835
101574.059	1.60011217	1	66	1	3	4	18	1	15	0	101574.6591	0.5067150726
101575.6591	1.600280117	1	67	1	3	4	19	1	15	0	101576.2592	0.5057563819
101577.2594	1.600210265	1	68	1	3	4	20	1	15	0	101577.8595	0.4053314083
101578.8596	1.600258519	1	69	1	3	4	21	1	15	0	101579.4597	0.4063721956
101580.4599	1.600225553	1	70	1	3	4	22	2	15	0	101581.0599	0.5049836741
101582.0601	1.600273044	1	71	1	3	4	23	2	15	0	101582.6602	0.504910129
101583.6604	1.600334523	1	72	1	3	4	24	1	15	0	101584.2605	0.6061004142
101585.2607	1.600218857	1	73	1	9	5	1	3	n/a	n/a	n/a	n/a
101586.8609	1.600264221	1	74	1	9	5	2	3	n/a	n/a	n/a	n/a
101588.4612	1.600244812	1	75	1	9	5	3	3	n/a	n/a	n/a	n/a
101590.0614	1.600103026	1	76	1	9	5	4	3	n/a	n/a	n/a	n/a
101591.6615	1.600236123	1	77	1	9	5	5	3	n/a	n/a	n/a	n/a
101593.2618	1.600387776	1	78	1	9	5	6	3	n/a	n/a	n/a	n/a
101594.8622	1.600130921	1	79	1	9	5	7	3	n/a	n/a	n/a	n/a
101596.4623	1.600256838	1	80	1	9	5	8	3	n/a	n/a	n/a	n/a
101598.0625	1.600224982	1	81	1	9	5	9	3	n/a	n/a	n/a	n/a
101599.6628	1.60026546	1	82	1	9	5	10	3	n/a	n/a	n/a	n/a
101601.263	1.600206456	1	83	1	9	5	11	3	n/a	n/a	n/a	n/a
101602.8632	1.600270133	1	84	1	9	5	12	3	n/a	n/a	n/a	n/a
101604.4635	1.600346124	1	85	1	5	6	1	2	15	0	101605.0636	0.6045502535
101606.0639	1.600114018	1	86	1	5	6	2	2	15	0	101606.6638	0.7063108554
101607.664	1.600263354	1	87	1	5	6	3	1	15	0	101608.2641	0.6067479917
101609.2642	1.600356576	1	88	1	5	6	4	1	15	0	101609.8643	0.5063545858
101610.8646	1.6001299	1	89	1	5	6	5	2	15	0	101611.4646	0.5067129936
101612.4647	1.600294571	1	90	1	5	6	6	2	15	n/a	101613.0648	n/a
101614.065	1.600178547	1	91	1	5	6	7	1	15	1	101614.6651	0.9068276466
101615.6652	1.60026375	1	92	1	5	6	8	2	15	1	101616.2653	0.6052265671
101617.2655	1.600260526	1	93	1	5	6	9	1	15	1	101617.8655	0.9071917446
101618.8657	1.600234275	1	94	1	5	6	10	1	14	1	101619.4659	0.7071183904
101620.466	1.600237702	1	95	1	5	6	11	1	14	1	101621.066	0.6036201652
101622.0662	1.600250498	1	96	1	5	6	12	2	14	1	101622.6663	0.6070686691
101623.6664	1.600225232	1	97	1	5	6	13	2	13	1	101624.2665	0.7031802426
101625.2667	1.600244898	1	98	1	5	6	14	2	13	1	101625.8668	0.6067131936
101626.8669	1.600279955	1	99	1	5	6	15	2	13	1	101627.467	0.606242275
101628.4672	1.600289125	1	100	1	5	6	16	1	12	1	101629.0673	0.8037797483
101630.0675	1.600131482	1	101	1	5	6	17	2	12	1	101630.6676	0.7041304726
101631.6676	1.600261346	1	102	1	5	6	18	1	12	1	101632.2678	0.7049147217
101633.2679	1.600370805	1	103	1	5	6	19	2	11	1	101633.868	0.6068830663
101634.8682	1.600127521	1	104	1	5	6	20	1	11	1	101635.4682	0.6067918084
101636.4684	1.600348042	1	105	1	5	6	21	1	11	1	101637.0685	0.5045084936
101638.0687	1.600220879	1	106	1	5	6	22	1	10	1	101638.6688	0.4056158199
101639.6689	1.600277609	1	107	1	5	6	23	2	10	1	101640.2691	0.7057466913
101641.2692	1.600107461	1	108	1	5	6	24	2	10	1	101641.8693	0.6028169089
101642.8693	1.60025695	1	109	1	9	7	1	3	n/a	n/a	n/a	n/a
101644.4696	1.600183974	1	110	1	9	7	2	3	n/a	n/a	n/a	n/a
101646.0698	1.600260877	1	111	1	9	7	3	3	n/a	n/a	n/a	n/a
101647.67	1.600307645	1	112	1	9	7	4	3	n/a	n/a	n/a	n/a
101649.2703	1.600256077	1	113	1	9	7	5	3	n/a	n/a	n/a	n/a
101650.8706	1.600235326	1	114	1	9	7	6	3	n/a	n/a	n/a	n/a
101652.4708	1.600267143	1	115	1	9	7	7	3	n/a	n/a	n/a	n/a
101654.0711	1.600200402	1	116	1	9	7	8	3	n/a	n/a	n/a	n/a
101655.6713	1.600251496	1	117	1	9	7	9	3	n/a	n/a	n/a	n/a
101657.2715	1.600234975	1	118	1	9	7	10	3	n/a	n/a	n/a	n/a
101658.8718	1.60025363	1	119	1	9	7	11	3	n/a	n/a	n/a	n/a
101660.472	1.600244975	1	120	1	9	7	12	3	n/a	n/a	n/a	n/a
101662.0723	1.600279714	1	121	1	7	8	1	1	9	1	101662.6724	0.8065960878
101663.6726	1.600208937	1	122	1	7	8	2	2	9	1	101664.2726	0.6049626858
101665.2728	1.600233368	1	123	1	7	8	3	2	9	1	101665.873	0.5044866481
101666.873	1.60025333	1	124	1	7	8	4	1	8	1	101667.4731	0.6071508142
101668.4733	1.600239815	1	125	1	7	8	5	2	8	1	101669.0734	0.4091539114
101670.0735	1.600304004	1	126	1	7	8	6	1	8	1	101670.6736	0.8042132151
101671.6738	1.600274021	1	127	1	7	8	7	2	7	1	101672.2739	0.6055804169
101673.2741	1.600260296	1	128	1	7	8	8	1	7	1	101673.8742	0.6060161236
101674.8743	1.600134687	1	129	1	7	8	9	2	7	1	101675.4744	0.6059158844
101676.4745	1.600277157	1	130	1	7	8	10	2	6	0	101677.0745	0.7045503313
101678.0747	1.600298749	1	131	1	7	8	11	1	7	1	101678.6748	0.5066193567
101679.675	1.600266884	1	132	1	7	8	12	1	7	1	101680.2752	0.4037815236
101681.2753	1.600124811	1	133	1	7	8	13	2	7	1	101681.8753	0.3032523584
101682.8754	1.600211231	1	134	1	7	8	14	2	6	0	101683.4755	0.4063440554
101684.4756	1.600289284	1	135	1	7	8	15	2	7	1	101685.0758	0.3073130613
101686.0759	1.600232313	1	136	1	7	8	16	2	7	0	101686.6759	0.3071938462
101687.6762	1.600239136	1	137	1	7	8	17	2	8	1	101688.2762	0.5050479329
101689.2764	1.600237743	1	138	1	7	8	18	2	8	0	101689.8765	0.4066996593
101690.8766	1.600122105	1	139	1	7	8	19	1	9	0	101691.4767	0.1070994554
101692.4768	1.600413816	1	140	1	7	8	20	1	10	1	101693.077	0.2072481632
101694.0772	1.60026877	1	141	1	7	8	21	1	10	0	101694.6773	0.5061679798
101695.6774	1.600296785	1	142	1	7	8	22	2	11	0	101696.2776	0.3098928286
101697.2777	1.600120799	1	143	1	7	8	23	2	12	n/a	101697.8777	n/a
101698.8779	1.600244177	1	144	1	7	8	24	1	12	n/a	101699.478	n/a
101700.4781	1.600238992	1	145	1	9	9	1	3	n/a	n/a	n/a	n/a
101702.0783	1.600262963	1	146	1	9	9	2	3	n/a	n/a	n/a	n/a
101703.6786	1.600228039	1	147	1	9	9	3	3	n/a	n/a	n/a	n/a
101705.2788	1.600254523	1	148	1	9	9	4	3	n/a	n/a	n/a	n/a
101706.8791	1.600243226	1	149	1	9	9	5	3	n/a	n/a	n/a	n/a
101708.4793	1.600224426	1	150	1	9	9	6	3	n/a	n/a	n/a	n/a
101710.0796	1.600288639	1	151	1	9	9	7	3	n/a	n/a	n/a	n/a
101711.6799	1.600286343	1	152	1	9	9	8	3	n/a	n/a	n/a	n/a
101713.2801	1.6002791	1	153	1	9	9	9	3	n/a	n/a	n/a	n/a
101714.8804	1.600253802	1	154	1	9	9	10	3	n/a	n/a	n/a	n/a
101716.4807	1.600116853	1	155	1	9	9	11	3	n/a	n/a	n/a	n/a
101718.0808	1.600224867	1	156	1	9	9	12	3	n/a	n/a	n/a	n/a
