onset	duration	run_number	trial_number	att_task	bar_direction	bar_period	bar_step	stim_noise_ori	stim_stair_val	response_val	probe_time	reaction_time
261358.4731	1.606280469	2	1	1	9	1	1	3	n/a	n/a	n/a	n/a
261360.0793	1.600576198	2	2	1	9	1	2	3	n/a	n/a	n/a	n/a
261361.6799	1.600705755	2	3	1	9	1	3	3	n/a	n/a	n/a	n/a
261363.2806	1.600287577	2	4	1	9	1	4	3	n/a	n/a	n/a	n/a
261364.8809	1.6005891	2	5	1	9	1	5	3	n/a	n/a	n/a	n/a
261366.4815	1.600627832	2	6	1	9	1	6	3	n/a	n/a	n/a	n/a
261368.0821	1.600659069	2	7	1	9	1	7	3	n/a	n/a	n/a	n/a
261369.6828	1.60050035	2	8	1	9	1	8	3	n/a	n/a	n/a	n/a
261371.2833	1.60055473	2	9	1	9	1	9	3	n/a	n/a	n/a	n/a
261372.8838	1.600539234	2	10	1	9	1	10	3	n/a	n/a	n/a	n/a
261374.4844	1.6005501	2	11	1	9	1	11	3	n/a	n/a	n/a	n/a
261376.0849	1.600570872	2	12	1	9	1	12	3	n/a	n/a	n/a	n/a
261377.6855	1.600670113	2	13	1	1	2	1	2	9	n/a	261378.2859	n/a
261379.2862	1.600447097	2	14	1	1	2	2	1	9	n/a	261379.8863	n/a
261380.8866	1.600581002	2	15	1	1	2	3	1	9	n/a	261381.4868	n/a
261382.4872	1.600641177	2	16	1	1	2	4	2	9	n/a	261383.0874	n/a
261384.0878	1.600503723	2	17	1	1	2	5	1	9	n/a	261384.6879	n/a
261385.6883	1.600702	2	18	1	1	2	6	2	9	n/a	261386.2886	n/a
261387.289	1.6002791	2	19	1	1	2	7	1	9	n/a	261387.8894	n/a
261388.8893	1.6007708	2	20	1	1	2	8	2	9	n/a	261389.4896	n/a
261390.4901	1.600515075	2	21	1	1	2	9	2	9	n/a	261391.0901	n/a
261392.0906	1.60070867	2	22	1	1	2	10	2	9	n/a	261392.6909	n/a
261393.6913	1.600231454	2	23	1	1	2	11	2	9	n/a	261394.2916	n/a
261395.2915	1.600882471	2	24	1	1	2	12	1	9	n/a	261395.892	n/a
261396.8924	1.600586338	2	25	1	1	2	13	1	9	n/a	261397.4926	n/a
261398.493	1.600319067	2	26	1	1	2	14	2	9	n/a	261399.0931	n/a
261400.0933	1.600558557	2	27	1	1	2	15	2	9	n/a	261400.6936	n/a
261401.6939	1.608897098	2	28	1	1	2	16	2	9	n/a	261402.3024	n/a
261403.3028	1.600568687	2	29	1	1	2	17	2	9	n/a	261403.9031	n/a
261404.9034	1.600571557	2	30	1	1	2	18	1	9	n/a	261405.5036	n/a
261406.5039	1.600544547	2	31	1	1	2	19	2	9	n/a	261407.1041	n/a
261408.1045	1.600455877	2	32	1	1	2	20	2	9	n/a	261408.7047	n/a
261409.7049	1.6008187	2	33	1	1	2	21	1	9	n/a	261410.3053	n/a
261411.3057	1.6005013	2	34	1	1	2	22	2	9	n/a	261411.9059	n/a
261412.9063	1.6004453	2	35	1	1	2	23	1	9	n/a	261413.5064	n/a
261414.5067	1.600581623	2	36	1	1	2	24	1	9	n/a	261415.1069	n/a
261416.1073	1.600584753	2	37	1	9	3	1	3	n/a	n/a	n/a	n/a
261417.7079	1.600557215	2	38	1	9	3	2	3	n/a	n/a	n/a	n/a
261419.3084	1.600555987	2	39	1	9	3	3	3	n/a	n/a	n/a	n/a
261420.909	1.600565615	2	40	1	9	3	4	3	n/a	n/a	n/a	n/a
261422.5095	1.60057374	2	41	1	9	3	5	3	n/a	n/a	n/a	n/a
261424.1101	1.600591367	2	42	1	9	3	6	3	n/a	n/a	n/a	n/a
261425.7107	1.6006978	2	43	1	9	3	7	3	n/a	n/a	n/a	n/a
261427.3114	1.600339259	2	44	1	9	3	8	3	n/a	n/a	n/a	n/a
261428.9117	1.600604238	2	45	1	9	3	9	3	n/a	n/a	n/a	n/a
261430.5123	1.600545191	2	46	1	9	3	10	3	n/a	n/a	n/a	n/a
261432.1129	1.600561373	2	47	1	9	3	11	3	n/a	n/a	n/a	n/a
261433.7135	1.600551104	2	48	1	9	3	12	3	n/a	n/a	n/a	n/a
261435.314	1.600570646	2	49	1	3	4	1	2	9	n/a	261435.9144	n/a
261436.9146	1.600557981	2	50	1	3	4	2	2	9	n/a	261437.5148	n/a
261438.5151	1.600661784	2	51	1	3	4	3	2	9	n/a	261439.1155	n/a
261440.1158	1.600355523	2	52	1	3	4	4	2	9	n/a	261440.7161	n/a
261441.7162	1.600646642	2	53	1	3	4	5	2	9	n/a	261442.3167	n/a
261443.3168	1.600501958	2	54	1	3	4	6	2	9	n/a	261443.9172	n/a
261444.9173	1.600643908	2	55	1	3	4	7	1	9	n/a	261445.5175	n/a
261446.5179	1.600602069	2	56	1	3	4	8	2	9	n/a	261447.1183	n/a
261448.1185	1.600526328	2	57	1	3	4	9	1	9	n/a	261448.7187	n/a
261449.7191	1.600528383	2	58	1	3	4	10	1	9	n/a	261450.3191	n/a
261451.3196	1.600567027	2	59	1	3	4	11	1	9	n/a	261451.92	n/a
261452.9202	1.600569998	2	60	1	3	4	12	1	9	n/a	261453.5204	n/a
261454.5207	1.600573179	2	61	1	3	4	13	1	9	n/a	261455.1209	n/a
261456.1213	1.600610565	2	62	1	3	4	14	1	9	n/a	261456.7215	n/a
261457.7219	1.6005708	2	63	1	3	4	15	1	9	n/a	261458.3219	n/a
261459.3225	1.600412842	2	64	1	3	4	16	2	9	n/a	261459.9225	n/a
261460.9229	1.600632049	2	65	1	3	4	17	2	9	n/a	261461.5232	n/a
261462.5235	1.600553581	2	66	1	3	4	18	1	9	n/a	261463.1239	n/a
261464.1241	1.600360847	2	67	1	3	4	19	2	9	n/a	261464.7243	n/a
261465.7245	1.600838623	2	68	1	3	4	20	2	9	n/a	261466.325	n/a
261467.3253	1.60048764	2	69	1	3	4	21	1	9	n/a	261467.9254	n/a
261468.9258	1.600715868	2	70	1	3	4	22	2	9	n/a	261469.526	n/a
261470.5265	1.600533492	2	71	1	3	4	23	1	9	n/a	261471.1268	n/a
261472.127	1.6003676	2	72	1	3	4	24	2	9	n/a	261472.7271	n/a
261473.7274	1.6006881	2	73	1	9	5	1	3	n/a	n/a	n/a	n/a
261475.3281	1.600509587	2	74	1	9	5	2	3	n/a	n/a	n/a	n/a
261476.9286	1.600567464	2	75	1	9	5	3	3	n/a	n/a	n/a	n/a
261478.5292	1.600531087	2	76	1	9	5	4	3	n/a	n/a	n/a	n/a
261480.1297	1.600674262	2	77	1	9	5	5	3	n/a	n/a	n/a	n/a
261481.7304	1.600491869	2	78	1	9	5	6	3	n/a	n/a	n/a	n/a
261483.3309	1.600566459	2	79	1	9	5	7	3	n/a	n/a	n/a	n/a
261484.9314	1.6005625	2	80	1	9	5	8	3	n/a	n/a	n/a	n/a
261486.532	1.60053999	2	81	1	9	5	9	3	n/a	n/a	n/a	n/a
261488.1325	1.600584181	2	82	1	9	5	10	3	n/a	n/a	n/a	n/a
261489.7331	1.6006833	2	83	1	9	5	11	3	n/a	n/a	n/a	n/a
261491.3338	1.600416672	2	84	1	9	5	12	3	n/a	n/a	n/a	n/a
261492.9342	1.600539694	2	85	1	5	6	1	2	9	n/a	261493.5344	n/a
261494.5347	1.600561453	2	86	1	5	6	2	1	9	n/a	261495.135	n/a
261496.1353	1.600741481	2	87	1	5	6	3	1	9	n/a	261496.7355	n/a
261497.7361	1.60040705	2	88	1	5	6	4	1	9	n/a	261498.3361	n/a
261499.3365	1.60062615	2	89	1	5	6	5	2	9	n/a	261499.9369	n/a
261500.9371	1.600576	2	90	1	5	6	6	1	9	n/a	261501.5374	n/a
261502.5377	1.6003962	2	91	1	5	6	7	2	9	n/a	261503.1378	n/a
261504.1381	1.6008848	2	92	1	5	6	8	1	9	n/a	261504.7383	n/a
261505.7389	1.6004142	2	93	1	5	6	9	2	9	n/a	261506.3389	n/a
261507.3394	1.600458389	2	94	1	5	6	10	2	9	n/a	261507.9395	n/a
261508.9398	1.600676284	2	95	1	5	6	11	1	9	n/a	261509.54	n/a
261510.5405	1.600439635	2	96	1	5	6	12	1	9	n/a	261511.1406	n/a
261512.1409	1.600629929	2	97	1	5	6	13	1	9	n/a	261512.7411	n/a
261513.7416	1.600520395	2	98	1	5	6	14	2	9	n/a	261514.3417	n/a
261515.3421	1.600552138	2	99	1	5	6	15	2	9	n/a	261515.9423	n/a
261516.9426	1.600637035	2	100	1	5	6	16	1	9	n/a	261517.5429	n/a
261518.5433	1.600480601	2	101	1	5	6	17	2	9	n/a	261519.1434	n/a
261520.1438	1.600655675	2	102	1	5	6	18	2	9	n/a	261520.744	n/a
261521.7444	1.600319919	2	103	1	5	6	19	2	9	n/a	261522.3447	n/a
261523.3447	1.600650094	2	104	1	5	6	20	1	9	n/a	261523.945	n/a
261524.9454	1.600659506	2	105	1	5	6	21	1	9	n/a	261525.5457	n/a
261526.546	1.6005612	2	106	1	5	6	22	1	9	n/a	261527.1462	n/a
261528.1466	1.600581469	2	107	1	5	6	23	1	9	n/a	261528.7467	n/a
261529.7472	1.600689281	2	108	1	5	6	24	2	9	n/a	261530.3474	n/a
261531.3479	1.60031265	2	109	1	9	7	1	3	n/a	n/a	n/a	n/a
261532.9482	1.6008117	2	110	1	9	7	2	3	n/a	n/a	n/a	n/a
261534.549	1.6002362	2	111	1	9	7	3	3	n/a	n/a	n/a	n/a
261536.1492	1.600653547	2	112	1	9	7	4	3	n/a	n/a	n/a	n/a
261537.7499	1.600577189	2	113	1	9	7	5	3	n/a	n/a	n/a	n/a
261539.3505	1.600560579	2	114	1	9	7	6	3	n/a	n/a	n/a	n/a
261540.951	1.600572904	2	115	1	9	7	7	3	n/a	n/a	n/a	n/a
261542.5516	1.600560268	2	116	1	9	7	8	3	n/a	n/a	n/a	n/a
261544.1522	1.600579079	2	117	1	9	7	9	3	n/a	n/a	n/a	n/a
261545.7527	1.600716679	2	118	1	9	7	10	3	n/a	n/a	n/a	n/a
261547.3534	1.600502556	2	119	1	9	7	11	3	n/a	n/a	n/a	n/a
261548.954	1.600420036	2	120	1	9	7	12	3	n/a	n/a	n/a	n/a
261550.5544	1.600575485	2	121	1	7	8	1	1	9	n/a	261551.1547	n/a
261552.1549	1.6005673	2	122	1	7	8	2	2	9	n/a	261552.7553	n/a
261553.7555	1.600571574	2	123	1	7	8	3	1	9	n/a	261554.356	n/a
261555.3561	1.600570974	2	124	1	7	8	4	1	9	n/a	261555.9563	n/a
261556.9567	1.600566094	2	125	1	7	8	5	2	9	n/a	261557.557	n/a
261558.5572	1.600614137	2	126	1	7	8	6	2	9	n/a	261559.1575	n/a
261560.1578	1.6004388	2	127	1	7	8	7	1	9	n/a	261560.7581	n/a
261561.7583	1.600594451	2	128	1	7	8	8	2	9	n/a	261562.3585	n/a
261563.3589	1.600659249	2	129	1	7	8	9	1	9	n/a	261563.9592	n/a
261564.9595	1.60047918	2	130	1	7	8	10	2	9	n/a	261565.5597	n/a
261566.56	1.600570532	2	131	1	7	8	11	1	9	n/a	261567.1603	n/a
261568.1606	1.600571957	2	132	1	7	8	12	1	9	n/a	261568.7609	n/a
261569.7612	1.600540147	2	133	1	7	8	13	1	9	n/a	261570.3614	n/a
261571.3617	1.600562691	2	134	1	7	8	14	1	9	n/a	261571.9621	n/a
261572.9623	1.600440892	2	135	1	7	8	15	1	9	n/a	261573.5626	n/a
261574.5627	1.600884848	2	136	1	7	8	16	2	9	n/a	261575.1631	n/a
261576.1636	1.600352841	2	137	1	7	8	17	1	9	n/a	261576.7639	n/a
261577.7639	1.600441111	2	138	1	7	8	18	2	9	n/a	261578.3641	n/a
261579.3644	1.600660325	2	139	1	7	8	19	1	9	n/a	261579.9647	n/a
261580.965	1.600581761	2	140	1	7	8	20	2	9	n/a	261581.5653	n/a
261582.5656	1.600569804	2	141	1	7	8	21	2	9	n/a	261583.1658	n/a
261584.1662	1.600559411	2	142	1	7	8	22	2	9	n/a	261584.7665	n/a
261585.7667	1.600596189	2	143	1	7	8	23	2	9	n/a	261586.3671	n/a
261587.3673	1.600507841	2	144	1	7	8	24	1	9	n/a	261587.9675	n/a
261588.9678	1.600705787	2	145	1	9	9	1	3	n/a	n/a	n/a	n/a
261590.5686	1.600611881	2	146	1	9	9	2	3	n/a	n/a	n/a	n/a
261592.1692	1.600345155	2	147	1	9	9	3	3	n/a	n/a	n/a	n/a
261593.7695	1.600579368	2	148	1	9	9	4	3	n/a	n/a	n/a	n/a
261595.3701	1.600567085	2	149	1	9	9	5	3	n/a	n/a	n/a	n/a
261596.9707	1.600563343	2	150	1	9	9	6	3	n/a	n/a	n/a	n/a
261598.5712	1.600577402	2	151	1	9	9	7	3	n/a	n/a	n/a	n/a
261600.1718	1.600562102	2	152	1	9	9	8	3	n/a	n/a	n/a	n/a
261601.7724	1.600557117	2	153	1	9	9	9	3	n/a	n/a	n/a	n/a
261603.3729	1.600590068	2	154	1	9	9	10	3	n/a	n/a	n/a	n/a
261604.9735	1.600554081	2	155	1	9	9	11	3	n/a	n/a	n/a	n/a
261606.5741	1.600541377	2	156	1	9	9	12	3	n/a	n/a	n/a	n/a
