onset	duration	run_number	trial_number	att_task	bar_direction	bar_period	bar_step	stim_noise_ori	stim_stair_val	response_val	probe_time	reaction_time
82841.76288	1.598285142	1	1	1	9	1	1	3	n/a	n/a	n/a	n/a
82843.36117	1.60012452	1	2	1	9	1	2	3	n/a	n/a	n/a	n/a
82844.96129	1.600239317	1	3	1	9	1	3	3	n/a	n/a	n/a	n/a
82846.56153	1.600241786	1	4	1	9	1	4	3	n/a	n/a	n/a	n/a
82848.16177	1.600242914	1	5	1	9	1	5	3	n/a	n/a	n/a	n/a
82849.76201	1.600235145	1	6	1	9	1	6	3	n/a	n/a	n/a	n/a
82851.36225	1.600233045	1	7	1	9	1	7	3	n/a	n/a	n/a	n/a
82852.96248	1.60024069	1	8	1	9	1	8	3	n/a	n/a	n/a	n/a
82854.56272	1.600239569	1	9	1	9	1	9	3	n/a	n/a	n/a	n/a
82856.16296	1.600247792	1	10	1	9	1	10	3	n/a	n/a	n/a	n/a
82857.76321	1.600229942	1	11	1	9	1	11	3	n/a	n/a	n/a	n/a
82859.36344	1.600240931	1	12	1	9	1	12	3	n/a	n/a	n/a	n/a
82860.96368	1.6002322	1	13	1	1	2	1	1	9	n/a	82861.56377	n/a
82862.56391	1.600244858	1	14	1	1	2	2	2	9	0	82863.164	-0.09392014085
82864.16416	1.600232476	1	15	1	1	2	3	1	10	1	82864.76425	0.9084929974
82865.76439	1.600253275	1	16	1	1	2	4	2	10	n/a	82866.36448	n/a
82867.36464	1.600279108	1	17	1	1	2	5	2	10	1	82867.96474	0.7128292292
82868.96492	1.600297377	1	18	1	1	2	6	2	10	0	82869.56502	0.311419821
82870.56522	1.600229113	1	19	1	1	2	7	2	11	n/a	82871.16531	n/a
82872.16545	1.600124134	1	20	1	1	2	8	2	11	1	82872.76554	0.109567937
82873.76557	1.600232425	1	21	1	1	2	9	1	11	1	82874.36567	0.318506672
82875.36581	1.60858988	1	22	1	1	2	10	1	11	0	82875.9659	0.3101635685
82876.9744	1.600238507	1	23	1	1	2	11	2	12	0	82877.57449	0.2152060733
82878.57463	1.600240069	1	24	1	1	2	12	2	13	1	82879.17472	0.8097197109
82880.17487	1.600222411	1	25	1	1	2	13	1	13	1	82880.77495	0.2128735627
82881.7751	1.600253693	1	26	1	1	2	14	1	13	0	82882.37521	0.107337218
82883.37535	1.60023151	1	27	1	1	2	15	2	14	0	82883.97542	0.3130998556
82884.97558	1.600238696	1	28	1	1	2	16	2	15	0	82885.57568	0.4135383386
82886.57582	1.600311808	1	29	1	1	2	17	2	15	1	82887.17592	0.6097674668
82888.17613	1.600164917	1	30	1	1	2	18	1	15	n/a	82888.77616	n/a
82889.7763	1.600251997	1	31	1	1	2	19	1	15	n/a	82890.37639	n/a
82891.37655	1.600226778	1	32	1	1	2	20	1	15	0	82891.97663	0.005798312137
82892.97678	1.600241973	1	33	1	1	2	21	1	15	1	82893.57686	0.9088159039
82894.57702	1.600223611	1	34	1	1	2	22	2	15	1	82895.1771	0.7107507797
82896.17724	1.600266617	1	35	1	1	2	23	1	15	1	82896.7774	0.5128937404
82897.77751	1.600214523	1	36	1	1	2	24	2	14	0	82898.37759	0.9122643315
82899.37772	1.600237442	1	37	1	9	3	1	3	n/a	n/a	n/a	n/a
82900.97796	1.600236024	1	38	1	9	3	2	3	n/a	n/a	n/a	n/a
82902.5782	1.600238069	1	39	1	9	3	3	3	n/a	n/a	n/a	n/a
82904.17843	1.600256178	1	40	1	9	3	4	3	n/a	n/a	n/a	n/a
82905.77869	1.600282936	1	41	1	9	3	5	3	n/a	n/a	n/a	n/a
82907.37897	1.600285646	1	42	1	9	3	6	3	n/a	n/a	n/a	n/a
82908.97926	1.608459188	1	43	1	9	3	7	3	n/a	n/a	n/a	n/a
82910.58772	1.600236042	1	44	1	9	3	8	3	n/a	n/a	n/a	n/a
82912.18795	1.600239124	1	45	1	9	3	9	3	n/a	n/a	n/a	n/a
82913.78819	1.600246723	1	46	1	9	3	10	3	n/a	n/a	n/a	n/a
82915.38844	1.600230901	1	47	1	9	3	11	3	n/a	n/a	n/a	n/a
82916.98867	1.600236682	1	48	1	9	3	12	3	n/a	n/a	n/a	n/a
82918.58891	1.60033754	1	49	1	3	4	1	2	15	n/a	82919.189	n/a
82920.18925	1.60014115	1	50	1	3	4	2	1	15	n/a	82920.78924	n/a
82921.78939	1.600239345	1	51	1	3	4	3	1	15	n/a	82922.38948	n/a
82923.38963	1.600237438	1	52	1	3	4	4	2	15	0	82923.98971	0.7049077492
82924.98986	1.600241789	1	53	1	3	4	5	2	15	1	82925.58996	0.4127943533
82926.59011	1.600230645	1	54	1	3	4	6	1	15	1	82927.19019	0.604787235
82928.19034	1.600242452	1	55	1	3	4	7	1	15	n/a	82928.79043	n/a
82929.79058	1.60026386	1	56	1	3	4	8	1	15	0	82930.39067	0.2119583151
82931.39084	1.60029276	1	57	1	3	4	9	2	15	n/a	82931.99094	n/a
82932.99113	1.600263516	1	58	1	3	4	10	2	15	1	82933.59124	0.307585047
82934.5914	1.600131216	1	59	1	3	4	11	2	15	0	82935.19148	0.410806047
82936.19153	1.600211228	1	60	1	3	4	12	1	15	0	82936.79172	0.8089890782
82937.79174	1.600278377	1	61	1	3	4	13	1	15	1	82938.39196	0.7090701711
82939.39202	1.60028636	1	62	1	3	4	14	2	15	n/a	82939.99213	n/a
82940.99231	1.600282192	1	63	1	3	4	15	2	15	0	82941.59241	0.5118030017
82942.59259	1.600242972	1	64	1	3	4	16	1	15	0	82943.19267	0.3110657476
82944.19283	1.60011644	1	65	1	3	4	17	2	15	0	82944.79279	0.5139680039
82945.79295	1.600261475	1	66	1	3	4	18	1	15	0	82946.39304	0.5104809473
82947.39321	1.600219646	1	67	1	3	4	19	1	15	1	82947.99327	0.6065563556
82948.99343	1.60034004	1	68	1	3	4	20	1	15	0	82949.59362	0.5107181505
82950.59377	1.600136229	1	69	1	3	4	21	2	15	0	82951.19387	0.9085709611
82952.1939	1.600278284	1	70	1	3	4	22	2	15	n/a	82952.79402	n/a
82953.79418	1.600287632	1	71	1	3	4	23	2	15	0	82954.3943	0.9074742063
82955.39447	1.600254886	1	72	1	3	4	24	2	15	1	82955.99457	0.4103448676
82956.99473	1.60011316	1	73	1	9	5	1	3	n/a	n/a	n/a	n/a
82958.59484	1.600243262	1	74	1	9	5	2	3	n/a	n/a	n/a	n/a
82960.19508	1.600234924	1	75	1	9	5	3	3	n/a	n/a	n/a	n/a
82961.79532	1.600236949	1	76	1	9	5	4	3	n/a	n/a	n/a	n/a
82963.39555	1.600242142	1	77	1	9	5	5	3	n/a	n/a	n/a	n/a
82964.9958	1.600243224	1	78	1	9	5	6	3	n/a	n/a	n/a	n/a
82966.59604	1.600234745	1	79	1	9	5	7	3	n/a	n/a	n/a	n/a
82968.19627	1.600234461	1	80	1	9	5	8	3	n/a	n/a	n/a	n/a
82969.79651	1.600250659	1	81	1	9	5	9	3	n/a	n/a	n/a	n/a
82971.39676	1.600339316	1	82	1	9	5	10	3	n/a	n/a	n/a	n/a
82972.9971	1.600234062	1	83	1	9	5	11	3	n/a	n/a	n/a	n/a
82974.59733	1.600248841	1	84	1	9	5	12	3	n/a	n/a	n/a	n/a
82976.19758	1.600234914	1	85	1	5	6	1	2	15	0	82976.79767	0.8125214264
82977.79782	1.600106772	1	86	1	5	6	2	1	15	1	82978.39777	0.808324565
82979.39792	1.600241924	1	87	1	5	6	3	1	15	1	82979.99799	0.8136191132
82980.99816	1.600248607	1	88	1	5	6	4	2	15	1	82981.59827	0.9106958862
82982.59841	1.600233231	1	89	1	5	6	5	1	14	1	82983.19849	0.712938755
82984.19865	1.60024691	1	90	1	5	6	6	1	14	n/a	82984.79875	n/a
82985.79889	1.600238611	1	91	1	5	6	7	2	14	1	82986.39899	0.8131624556
82987.39913	1.600237647	1	92	1	5	6	8	2	14	0	82987.99922	0.3135358962
82988.99937	1.600232969	1	93	1	5	6	9	1	15	n/a	82989.59945	n/a
82990.5996	1.600250416	1	94	1	5	6	10	1	15	n/a	82991.1997	n/a
82992.19985	1.600253111	1	95	1	5	6	11	2	15	1	82992.79993	0.7123693521
82993.80011	1.600270008	1	96	1	5	6	12	1	15	n/a	82994.4002	n/a
82995.40038	1.600282084	1	97	1	5	6	13	1	15	0	82996.00042	0.4097992344
82997.00066	1.600132727	1	98	1	5	6	14	1	15	1	82997.60075	0.8135130852
82998.60079	1.600281528	1	99	1	5	6	15	1	15	n/a	82999.20087	n/a
83000.20107	1.600185471	1	100	1	5	6	16	1	15	1	83000.8011	0.8130067168
83001.80126	1.600246148	1	101	1	5	6	17	2	15	n/a	83002.40135	n/a
83003.4015	1.600242968	1	102	1	5	6	18	1	15	n/a	83004.0016	n/a
83005.00175	1.600240176	1	103	1	5	6	19	1	15	n/a	83005.60189	n/a
83006.60199	1.600240206	1	104	1	5	6	20	1	15	n/a	83007.20207	n/a
83008.20223	1.600238752	1	105	1	5	6	21	2	15	0	83008.80233	0.5083048533
83009.80247	1.600233307	1	106	1	5	6	22	1	15	n/a	83010.40255	n/a
83011.4027	1.600234396	1	107	1	5	6	23	2	15	0	83012.00279	0.8086207145
83013.00293	1.600241914	1	108	1	5	6	24	1	15	1	83013.60303	0.9111496386
83014.60318	1.600269385	1	109	1	9	7	1	3	n/a	n/a	n/a	n/a
83016.20345	1.60027516	1	110	1	9	7	2	3	n/a	n/a	n/a	n/a
83017.80372	1.600280133	1	111	1	9	7	3	3	n/a	n/a	n/a	n/a
83019.404	1.600115723	1	112	1	9	7	4	3	n/a	n/a	n/a	n/a
83021.00412	1.60023763	1	113	1	9	7	5	3	n/a	n/a	n/a	n/a
83022.60435	1.600236569	1	114	1	9	7	6	3	n/a	n/a	n/a	n/a
83024.20459	1.600238348	1	115	1	9	7	7	3	n/a	n/a	n/a	n/a
83025.80483	1.600247159	1	116	1	9	7	8	3	n/a	n/a	n/a	n/a
83027.40508	1.600229507	1	117	1	9	7	9	3	n/a	n/a	n/a	n/a
83029.00531	1.6002435	1	118	1	9	7	10	3	n/a	n/a	n/a	n/a
83030.60555	1.60024959	1	119	1	9	7	11	3	n/a	n/a	n/a	n/a
83032.2058	1.600228478	1	120	1	9	7	12	3	n/a	n/a	n/a	n/a
83033.80603	1.600241304	1	121	1	7	8	1	1	15	n/a	83034.40611	n/a
83035.40627	1.600237451	1	122	1	7	8	2	1	15	1	83036.00636	0.7089435045
83037.00651	1.600235463	1	123	1	7	8	3	2	15	1	83037.60658	0.8083541521
83038.60674	1.600239452	1	124	1	7	8	4	1	14	1	83039.20683	0.5080813797
83040.20698	1.600341988	1	125	1	7	8	5	2	14	n/a	83040.80708	n/a
83041.80732	1.600132591	1	126	1	7	8	6	2	14	1	83042.40732	0.6089885492
83043.40746	1.600239465	1	127	1	7	8	7	2	14	1	83044.00755	0.7121514421
83045.00769	1.600282253	1	128	1	7	8	8	1	13	1	83045.60781	0.5039050739
83046.60798	1.600271256	1	129	1	7	8	9	1	13	1	83047.20809	0.7067575104
83048.20825	1.600268913	1	130	1	7	8	10	1	13	1	83048.80839	0.7066108017
83049.80852	1.600096814	1	131	1	7	8	11	2	12	1	83050.40861	0.6112044988
83051.40861	1.600246258	1	132	1	7	8	12	1	12	1	83052.00873	0.709861718
83053.00886	1.600245634	1	133	1	7	8	13	2	12	1	83053.60897	0.7064225138
83054.60911	1.600235488	1	134	1	7	8	14	2	11	1	83055.20921	0.8050531727
83056.20934	1.600247212	1	135	1	7	8	15	2	11	n/a	83056.80943	n/a
83057.80959	1.600291208	1	136	1	7	8	16	2	11	1	83058.40969	0.8079203186
83059.40988	1.600274805	1	137	1	7	8	17	2	11	1	83060.00998	0.9111051069
83061.01015	1.600266344	1	138	1	7	8	18	2	10	n/a	83061.61026	n/a
83062.61042	1.600233924	1	139	1	7	8	19	1	10	1	83063.2105	0.5061283682
83064.21065	1.600234628	1	140	1	7	8	20	1	10	n/a	83064.81074	n/a
83065.81089	1.600239193	1	141	1	7	8	21	1	10	0	83066.41099	0.5131911406
83067.41113	1.600096873	1	142	1	7	8	22	2	11	n/a	83068.01122	n/a
83069.01123	1.600245275	1	143	1	7	8	23	1	11	1	83069.61131	0.8053719785
83070.61147	1.600263879	1	144	1	7	8	24	1	11	1	83071.21156	0.7047692197
83072.21173	1.600238707	1	145	1	9	9	1	3	n/a	n/a	n/a	n/a
83073.81197	1.600239582	1	146	1	9	9	2	3	n/a	n/a	n/a	n/a
83075.41221	1.600235776	1	147	1	9	9	3	3	n/a	n/a	n/a	n/a
83077.01245	1.600238018	1	148	1	9	9	4	3	n/a	n/a	n/a	n/a
83078.61269	1.600237403	1	149	1	9	9	5	3	n/a	n/a	n/a	n/a
83080.21292	1.60023178	1	150	1	9	9	6	3	n/a	n/a	n/a	n/a
83081.81316	1.600244372	1	151	1	9	9	7	3	n/a	n/a	n/a	n/a
83083.4134	1.600240896	1	152	1	9	9	8	3	n/a	n/a	n/a	n/a
83085.01364	1.600237004	1	153	1	9	9	9	3	n/a	n/a	n/a	n/a
83086.61388	1.600235475	1	154	1	9	9	10	3	n/a	n/a	n/a	n/a
83088.21411	1.600240349	1	155	1	9	9	11	3	n/a	n/a	n/a	n/a
83089.81435	1.600234599	1	156	1	9	9	12	3	n/a	n/a	n/a	n/a
