onset	duration	run_number	trial_number	att_task	bar_direction	bar_period	bar_step	stim_noise_ori	stim_stair_val	response_val	probe_time	reaction_time
673981.978	1.598280402	2	1	1	9	1	1	3	n/a	n/a	n/a	n/a
673983.5762	1.600096714	2	2	1	9	1	2	3	n/a	n/a	n/a	n/a
673985.1763	1.60023646	2	3	1	9	1	3	3	n/a	n/a	n/a	n/a
673986.7766	1.600240065	2	4	1	9	1	4	3	n/a	n/a	n/a	n/a
673988.3768	1.600244151	2	5	1	9	1	5	3	n/a	n/a	n/a	n/a
673989.977	1.600250624	2	6	1	9	1	6	3	n/a	n/a	n/a	n/a
673991.5773	1.600354588	2	7	1	9	1	7	3	n/a	n/a	n/a	n/a
673993.1777	1.600123054	2	8	1	9	1	8	3	n/a	n/a	n/a	n/a
673994.7778	1.600236794	2	9	1	9	1	9	3	n/a	n/a	n/a	n/a
673996.378	1.600246964	2	10	1	9	1	10	3	n/a	n/a	n/a	n/a
673997.9783	1.600234929	2	11	1	9	1	11	3	n/a	n/a	n/a	n/a
673999.5785	1.600278088	2	12	1	9	1	12	3	n/a	n/a	n/a	n/a
674001.1788	1.600264774	2	13	1	1	2	1	2	3	n/a	674001.7789	n/a
674002.779	1.600283073	2	14	1	1	2	2	2	3	1	674003.3792	0.6102575082
674004.3793	1.600103956	2	15	1	1	2	3	2	2	1	674004.9794	0.5063109512
674005.9794	1.600243669	2	16	1	1	2	4	1	2	1	674006.5795	0.6141487444
674007.5797	1.600266886	2	17	1	1	2	5	1	2	n/a	674008.1798	n/a
674009.1799	1.600228785	2	18	1	1	2	6	1	2	0	674009.78	0.5142978149
674010.7802	1.600236806	2	19	1	1	2	7	2	3	1	674011.3802	0.3134902141
674012.3804	1.600239894	2	20	1	1	2	8	1	3	1	674012.9805	0.5121067325
674013.9806	1.600236152	2	21	1	1	2	9	2	3	1	674014.5807	0.4117036379
674015.5809	1.60034659	2	22	1	1	2	10	2	2	1	674016.181	0.5133103085
674017.1812	1.600251105	2	23	1	1	2	11	2	2	1	674017.7812	0.7134543684
674018.7815	1.600107537	2	24	1	1	2	12	2	2	0	674019.3814	0.7138007324
674020.3816	1.60024857	2	25	1	1	2	13	2	3	0	674020.9817	0.5067742689
674021.9818	1.600241353	2	26	1	1	2	14	1	4	1	674022.5819	0.413239245
674023.5821	1.60023856	2	27	1	1	2	15	1	4	0	674024.1822	0.4097606909
674025.1823	1.600228128	2	28	1	1	2	16	1	5	0	674025.7824	0.412256532
674026.7825	1.600254865	2	29	1	1	2	17	2	6	1	674027.3827	0.8123981127
674028.3828	1.600267791	2	30	1	1	2	18	2	6	0	674028.9829	0.4096301453
674029.9831	1.600292468	2	31	1	1	2	19	2	7	1	674030.5832	0.6120428072
674031.5834	1.600267276	2	32	1	1	2	20	1	7	1	674032.1835	0.8077221985
674033.1836	1.600110866	2	33	1	1	2	21	2	7	1	674033.7837	0.5133835691
674034.7837	1.600229134	2	34	1	1	2	22	1	6	1	674035.3838	0.6116637795
674036.384	1.600251471	2	35	1	1	2	23	1	6	0	674036.9841	0.3110022903
674037.9842	1.600202149	2	36	1	1	2	24	1	7	0	674038.5843	0.3096844733
674039.5844	1.600255552	2	37	1	9	3	1	3	n/a	n/a	n/a	n/a
674041.1847	1.600253664	2	38	1	9	3	2	3	n/a	n/a	n/a	n/a
674042.7849	1.600275968	2	39	1	9	3	3	3	n/a	n/a	n/a	n/a
674044.3852	1.600281697	2	40	1	9	3	4	3	n/a	n/a	n/a	n/a
674045.9855	1.600268322	2	41	1	9	3	5	3	n/a	n/a	n/a	n/a
674047.5858	1.600092339	2	42	1	9	3	6	3	n/a	n/a	n/a	n/a
674049.1858	1.600260746	2	43	1	9	3	7	3	n/a	n/a	n/a	n/a
674050.7861	1.600228553	2	44	1	9	3	8	3	n/a	n/a	n/a	n/a
674052.3863	1.600243817	2	45	1	9	3	9	3	n/a	n/a	n/a	n/a
674053.9866	1.60025747	2	46	1	9	3	10	3	n/a	n/a	n/a	n/a
674055.5868	1.600261564	2	47	1	9	3	11	3	n/a	n/a	n/a	n/a
674057.1871	1.600217259	2	48	1	9	3	12	3	n/a	n/a	n/a	n/a
674058.7873	1.600228594	2	49	1	3	4	1	1	8	1	674059.3874	0.1076204159
674060.3875	1.60027073	2	50	1	3	4	2	2	8	1	674060.9877	0.4090402274
674061.9878	1.600246881	2	51	1	3	4	3	2	8	1	674062.5879	0.4122418445
674063.5881	1.600225171	2	52	1	3	4	4	2	7	1	674064.1881	0.4076845158
674065.1883	1.600220482	2	53	1	3	4	5	1	7	1	674065.7884	0.4056283283
674066.7885	1.600253506	2	54	1	3	4	6	1	7	1	674067.3886	0.7132316679
674068.3888	1.600224547	2	55	1	3	4	7	1	6	1	674068.9889	0.6095135809
674069.989	1.600250834	2	56	1	3	4	8	2	6	1	674070.5891	0.8084939799
674071.5892	1.600237289	2	57	1	3	4	9	1	6	1	674072.1893	0.5110542384
674073.1895	1.600244942	2	58	1	3	4	10	1	5	0	674073.7896	0.5132902915
674074.7897	1.6002204	2	59	1	3	4	11	2	6	0	674075.3898	0.5133526163
674076.3899	1.600255623	2	60	1	3	4	12	2	7	1	674076.99	0.5050617619
674077.9902	1.600240965	2	61	1	3	4	13	2	7	1	674078.5903	0.5084714445
674079.5904	1.600234312	2	62	1	3	4	14	2	7	1	674080.1905	0.6083741974
674081.1907	1.600342423	2	63	1	3	4	15	1	6	1	674081.7908	0.5136273324
674082.791	1.600134283	2	64	1	3	4	16	1	6	1	674083.391	0.5132475558
674084.3911	1.600240265	2	65	1	3	4	17	2	6	1	674084.9912	0.5086182915
674085.9914	1.600271238	2	66	1	3	4	18	1	5	1	674086.5915	0.6124181339
674087.5917	1.600298721	2	67	1	3	4	19	1	5	1	674088.1918	0.7104312072
674089.192	1.600248592	2	68	1	3	4	20	2	5	1	674089.792	0.5111661337
674090.7922	1.600117448	2	69	1	3	4	21	2	4	1	674091.3922	0.6129185375
674092.3923	1.600255318	2	70	1	3	4	22	1	4	1	674092.9924	0.6124050386
674093.9926	1.600227212	2	71	1	3	4	23	1	4	1	674094.5927	0.7125113399
674095.5928	1.600251194	2	72	1	3	4	24	1	3	0	674096.1929	0.512235126
674097.1931	1.600235359	2	73	1	9	5	1	3	n/a	n/a	n/a	n/a
674098.7933	1.600242365	2	74	1	9	5	2	3	n/a	n/a	n/a	n/a
674100.3935	1.600162635	2	75	1	9	5	3	3	n/a	n/a	n/a	n/a
674101.9937	1.600402353	2	76	1	9	5	4	3	n/a	n/a	n/a	n/a
674103.5941	1.6001508	2	77	1	9	5	5	3	n/a	n/a	n/a	n/a
674105.1942	1.600227893	2	78	1	9	5	6	3	n/a	n/a	n/a	n/a
674106.7945	1.600239989	2	79	1	9	5	7	3	n/a	n/a	n/a	n/a
674108.3947	1.600240723	2	80	1	9	5	8	3	n/a	n/a	n/a	n/a
674109.995	1.600236913	2	81	1	9	5	9	3	n/a	n/a	n/a	n/a
674111.5952	1.600219208	2	82	1	9	5	10	3	n/a	n/a	n/a	n/a
674113.1954	1.600268699	2	83	1	9	5	11	3	n/a	n/a	n/a	n/a
674114.7957	1.600220717	2	84	1	9	5	12	3	n/a	n/a	n/a	n/a
674116.3959	1.600245531	2	85	1	5	6	1	1	4	1	674116.996	0.908871031
674117.9961	1.600230899	2	86	1	5	6	2	1	4	0	674118.5962	0.8122097024
674119.5964	1.600271958	2	87	1	5	6	3	2	5	1	674120.1965	0.7091682439
674121.1967	1.600216129	2	88	1	5	6	4	2	5	1	674121.7968	0.7129767806
674122.7969	1.60024343	2	89	1	5	6	5	1	5	1	674123.397	0.4052581907
674124.3971	1.600205014	2	90	1	5	6	6	2	4	n/a	674124.9973	n/a
674125.9973	1.60025071	2	91	1	5	6	7	2	4	0	674126.5974	0.9107058924
674127.5976	1.600308144	2	92	1	5	6	8	1	5	1	674128.1977	0.7124951615
674129.1979	1.600242582	2	93	1	5	6	9	2	5	1	674129.7979	0.7109735938
674130.7981	1.600275962	2	94	1	5	6	10	1	5	1	674131.3982	0.5106321137
674132.3984	1.600239094	2	95	1	5	6	11	2	4	1	674132.9985	0.5099324456
674133.9986	1.600149735	2	96	1	5	6	12	2	4	0	674134.5986	0.3054934971
674135.5988	1.600288438	2	97	1	5	6	13	2	5	0	674136.1989	0.3102673583
674137.1991	1.600275721	2	98	1	5	6	14	1	6	0	674137.7992	0.6116307202
674138.7993	1.600239447	2	99	1	5	6	15	2	7	0	674139.3995	0.5069660571
674140.3996	1.60013116	2	100	1	5	6	16	2	8	n/a	674140.9996	n/a
674141.9997	1.60020912	2	101	1	5	6	17	2	8	n/a	674142.5998	n/a
674143.5999	1.600274814	2	102	1	5	6	18	1	8	1	674144.2001	0.1125242689
674145.2002	1.60035353	2	103	1	5	6	19	1	8	1	674145.8004	0.4110411847
674146.8006	1.600233453	2	104	1	5	6	20	2	8	1	674147.4007	0.60766661
674148.4008	1.600238859	2	105	1	5	6	21	2	7	1	674149.0008	0.6127857771
674150.001	1.600162182	2	106	1	5	6	22	2	7	1	674150.601	0.7120239615
674151.6012	1.600309318	2	107	1	5	6	23	2	7	1	674152.2013	0.7101982703
674153.2015	1.600123984	2	108	1	5	6	24	2	6	n/a	674153.8016	n/a
674154.8016	1.600301843	2	109	1	9	7	1	3	n/a	n/a	n/a	n/a
674156.4019	1.600171276	2	110	1	9	7	2	3	n/a	n/a	n/a	n/a
674158.0021	1.600239916	2	111	1	9	7	3	3	n/a	n/a	n/a	n/a
674159.6023	1.600242937	2	112	1	9	7	4	3	n/a	n/a	n/a	n/a
674161.2026	1.600255316	2	113	1	9	7	5	3	n/a	n/a	n/a	n/a
674162.8028	1.600228982	2	114	1	9	7	6	3	n/a	n/a	n/a	n/a
674164.4031	1.600239994	2	115	1	9	7	7	3	n/a	n/a	n/a	n/a
674166.0033	1.600240953	2	116	1	9	7	8	3	n/a	n/a	n/a	n/a
674167.6035	1.600233142	2	117	1	9	7	9	3	n/a	n/a	n/a	n/a
674169.2038	1.600279874	2	118	1	9	7	10	3	n/a	n/a	n/a	n/a
674170.8041	1.600330013	2	119	1	9	7	11	3	n/a	n/a	n/a	n/a
674172.4044	1.600224388	2	120	1	9	7	12	3	n/a	n/a	n/a	n/a
674174.0046	1.600249394	2	121	1	7	8	1	1	6	n/a	674174.6047	n/a
674175.6049	1.600108396	2	122	1	7	8	2	1	6	n/a	674176.2049	n/a
674177.205	1.60023747	2	123	1	7	8	3	1	6	1	674177.8051	0.7132544196
674178.8052	1.600233653	2	124	1	7	8	4	2	6	1	674179.4053	0.513120255
674180.4054	1.600252677	2	125	1	7	8	5	1	6	1	674181.0055	0.5097098375
674182.0057	1.600234023	2	126	1	7	8	6	1	5	0	674182.6058	0.3063878559
674183.6059	1.600257947	2	127	1	7	8	7	2	6	1	674184.206	0.5101155085
674185.2062	1.600234518	2	128	1	7	8	8	1	6	0	674185.8062	0.5055694439
674186.8064	1.600244117	2	129	1	7	8	9	1	7	1	674187.4065	0.3069867084
674188.4067	1.600236853	2	130	1	7	8	10	2	7	1	674189.0067	0.4075063319
674190.0069	1.6002223	2	131	1	7	8	11	1	7	1	674190.607	0.4103387789
674191.6071	1.600281227	2	132	1	7	8	12	2	6	1	674192.2072	0.4121233389
674193.2074	1.600280368	2	133	1	7	8	13	2	6	1	674193.8075	0.5087831122
674194.8077	1.600279393	2	134	1	7	8	14	2	6	1	674195.4078	0.9084211206
674196.408	1.600119008	2	135	1	7	8	15	1	5	n/a	674197.008	n/a
674198.0081	1.600225887	2	136	1	7	8	16	1	5	0	674198.6082	0.6135678196
674199.6083	1.600221601	2	137	1	7	8	17	1	6	1	674200.2084	0.313086125
674201.2085	1.600269533	2	138	1	7	8	18	2	6	1	674201.8088	0.315102098
674202.8088	1.600232596	2	139	1	7	8	19	2	6	1	674203.409	0.7127406746
674204.409	1.600238005	2	140	1	7	8	20	2	5	0	674205.0091	0.9071783141
674206.0093	1.600222807	2	141	1	7	8	21	2	6	1	674206.6095	0.6121617745
674207.6095	1.60026857	2	142	1	7	8	22	1	6	1	674208.2096	0.5127578916
674209.2098	1.600240741	2	143	1	7	8	23	2	6	1	674209.8098	0.5126548135
674210.81	1.600231259	2	144	1	7	8	24	1	5	0	674211.4101	0.5090723324
674212.4102	1.600236239	2	145	1	9	9	1	3	n/a	n/a	n/a	n/a
674214.0105	1.600304486	2	146	1	9	9	2	3	n/a	n/a	n/a	n/a
674215.6108	1.600257262	2	147	1	9	9	3	3	n/a	n/a	n/a	n/a
674217.211	1.600272628	2	148	1	9	9	4	3	n/a	n/a	n/a	n/a
674218.8113	1.600120879	2	149	1	9	9	5	3	n/a	n/a	n/a	n/a
674220.4114	1.600232322	2	150	1	9	9	6	3	n/a	n/a	n/a	n/a
674222.0117	1.600371982	2	151	1	9	9	7	3	n/a	n/a	n/a	n/a
674223.612	1.600130954	2	152	1	9	9	8	3	n/a	n/a	n/a	n/a
674225.2122	1.600230618	2	153	1	9	9	9	3	n/a	n/a	n/a	n/a
674226.8124	1.600338756	2	154	1	9	9	10	3	n/a	n/a	n/a	n/a
674228.4127	1.600134144	2	155	1	9	9	11	3	n/a	n/a	n/a	n/a
674230.0129	1.600245788	2	156	1	9	9	12	3	n/a	n/a	n/a	n/a
