onset	duration	run_number	trial_number	att_task	bar_direction	bar_period	bar_step	stim_noise_ori	stim_stair_val	response_val	probe_time	reaction_time
17733.57768	2.028245208	1	1	1	9	1	1	3	n/a	n/a	n/a	n/a
17735.60592	1.489129167	1	2	1	9	1	2	3	n/a	n/a	n/a	n/a
17737.09505	1.51972125	1	3	1	9	1	3	3	n/a	n/a	n/a	n/a
17738.61477	1.513990791	1	4	1	9	1	4	3	n/a	n/a	n/a	n/a
17740.12876	1.490870334	1	5	1	9	1	5	3	n/a	n/a	n/a	n/a
17741.61963	1.498707291	1	6	1	9	1	6	3	n/a	n/a	n/a	n/a
17743.11834	1.491456792	1	7	1	9	1	7	3	n/a	n/a	n/a	n/a
17744.6098	1.488588833	1	8	1	9	1	8	3	n/a	n/a	n/a	n/a
17746.09839	1.488798542	1	9	1	9	1	9	3	n/a	n/a	n/a	n/a
17747.58719	1.49038225	1	10	1	9	1	10	3	n/a	n/a	n/a	n/a
17749.07757	1.48907075	1	11	1	9	1	11	3	n/a	n/a	n/a	n/a
17750.56664	1.489412208	1	12	1	9	1	12	3	n/a	n/a	n/a	n/a
17752.05605	1.4904875	1	13	1	1	2	1	1	15	n/a	17752.6151	n/a
17753.54654	1.488822125	1	14	1	1	2	2	2	15	n/a	17754.10463	n/a
17755.03536	1.488121667	1	15	1	1	2	3	2	15	n/a	17755.59303	n/a
17756.52348	1.495898792	1	16	1	1	2	4	1	15	n/a	17757.08625	n/a
17758.01938	1.499918916	1	17	1	1	2	5	1	15	n/a	17758.58858	n/a
17759.5193	1.723175792	1	18	1	1	2	6	1	15	n/a	17760.08896	n/a
17761.24248	1.516380208	1	19	1	1	2	7	1	15	n/a	17761.81988	n/a
17762.75886	1.527029875	1	20	1	1	2	8	2	15	n/a	17763.35192	n/a
17764.28589	1.532225167	1	21	1	1	2	9	2	15	n/a	17764.86523	n/a
17765.81811	1.524352125	1	22	1	1	2	10	1	15	n/a	17766.39423	n/a
17767.34246	1.522765833	1	23	1	1	2	11	1	15	n/a	17767.92971	n/a
17768.86523	1.580861292	1	24	1	1	2	12	2	15	n/a	17769.44804	n/a
17770.44609	1.5242355	1	25	1	1	2	13	1	15	n/a	17771.03123	n/a
17771.97033	1.523729667	1	26	1	1	2	14	1	15	n/a	17772.55271	n/a
17773.49406	1.5414635	1	27	1	1	2	15	1	15	n/a	17774.073	n/a
17775.03552	1.524797208	1	28	1	1	2	16	1	15	n/a	17775.62389	n/a
17776.56032	1.523000625	1	29	1	1	2	17	2	15	n/a	17777.14229	n/a
17778.08332	1.520244667	1	30	1	1	2	18	1	15	n/a	17778.66662	n/a
17779.60356	1.529059125	1	31	1	1	2	19	2	15	n/a	17780.18311	n/a
17781.13262	1.50635125	1	32	1	1	2	20	1	15	n/a	17781.70497	n/a
17782.63897	1.490073083	1	33	1	1	2	21	1	15	n/a	17783.1979	n/a
17784.12905	1.48842975	1	34	1	1	2	22	2	15	n/a	17784.68631	n/a
17785.61747	1.489209583	1	35	1	1	2	23	1	15	n/a	17786.17551	n/a
17787.10668	1.489786334	1	36	1	1	2	24	2	15	n/a	17787.66503	n/a
17788.59647	1.489708125	1	37	1	9	3	1	3	n/a	n/a	n/a	n/a
17790.08618	1.490301666	1	38	1	9	3	2	3	n/a	n/a	n/a	n/a
17791.57648	1.490105167	1	39	1	9	3	3	3	n/a	n/a	n/a	n/a
17793.06659	1.489060083	1	40	1	9	3	4	3	n/a	n/a	n/a	n/a
17794.55565	1.500923125	1	41	1	9	3	5	3	n/a	n/a	n/a	n/a
17796.05657	1.489857334	1	42	1	9	3	6	3	n/a	n/a	n/a	n/a
17797.54643	1.489710458	1	43	1	9	3	7	3	n/a	n/a	n/a	n/a
17799.03614	1.494430083	1	44	1	9	3	8	3	n/a	n/a	n/a	n/a
17800.53057	1.490558	1	45	1	9	3	9	3	n/a	n/a	n/a	n/a
17802.02112	1.490100792	1	46	1	9	3	10	3	n/a	n/a	n/a	n/a
17803.51123	1.491516	1	47	1	9	3	11	3	n/a	n/a	n/a	n/a
17805.00274	1.495017292	1	48	1	9	3	12	3	n/a	n/a	n/a	n/a
17806.49776	1.489742875	1	49	1	3	4	1	1	15	n/a	17807.05641	n/a
17807.9875	1.488477166	1	50	1	3	4	2	2	15	n/a	17808.54614	n/a
17809.47598	1.487426792	1	51	1	3	4	3	1	15	n/a	17810.03348	n/a
17810.96341	1.488141542	1	52	1	3	4	4	1	15	n/a	17811.52121	n/a
17812.45155	1.49249	1	53	1	3	4	5	2	15	n/a	17813.01269	n/a
17813.94404	1.488781041	1	54	1	3	4	6	1	15	n/a	17814.50298	n/a
17815.43282	1.496891084	1	55	1	3	4	7	2	15	n/a	17815.99329	n/a
17816.92971	1.522000541	1	56	1	3	4	8	2	15	n/a	17817.50531	n/a
17818.45171	1.51379975	1	57	1	3	4	9	1	15	n/a	17819.01848	n/a
17819.96551	1.517404917	1	58	1	3	4	10	1	15	n/a	17820.55158	n/a
17821.48291	1.507839333	1	59	1	3	4	11	2	15	n/a	17822.05862	n/a
17822.99075	1.52611775	1	60	1	3	4	12	2	15	n/a	17823.57445	n/a
17824.51687	1.537147209	1	61	1	3	4	13	1	15	n/a	17825.09931	n/a
17826.05402	1.51406625	1	62	1	3	4	14	2	15	n/a	17826.62995	n/a
17827.56809	1.499694458	1	63	1	3	4	15	2	15	n/a	17828.13441	n/a
17829.06778	1.534306125	1	64	1	3	4	16	2	15	n/a	17829.65219	n/a
17830.60209	1.506997208	1	65	1	3	4	17	1	15	n/a	17831.17763	n/a
17832.10908	1.50200275	1	66	1	3	4	18	1	15	n/a	17832.6778	n/a
17833.61109	1.497595084	1	67	1	3	4	19	2	15	n/a	17834.17271	n/a
17835.10868	1.492928333	1	68	1	3	4	20	1	15	n/a	17835.67148	n/a
17836.60161	1.488043833	1	69	1	3	4	21	2	15	n/a	17837.15908	n/a
17838.08965	1.487480959	1	70	1	3	4	22	1	15	n/a	17838.64694	n/a
17839.57713	1.489601666	1	71	1	3	4	23	2	15	n/a	17840.1351	n/a
17841.06674	1.49045975	1	72	1	3	4	24	2	15	n/a	17841.62511	n/a
17842.5572	1.48971	1	73	1	9	5	1	3	n/a	n/a	n/a	n/a
17844.04691	1.489850667	1	74	1	9	5	2	3	n/a	n/a	n/a	n/a
17845.53676	1.489138625	1	75	1	9	5	3	3	n/a	n/a	n/a	n/a
17847.02589	1.489857167	1	76	1	9	5	4	3	n/a	n/a	n/a	n/a
17848.51575	1.491764041	1	77	1	9	5	5	3	n/a	n/a	n/a	n/a
17850.00752	1.489398417	1	78	1	9	5	6	3	n/a	n/a	n/a	n/a
17851.49691	1.488854708	1	79	1	9	5	7	3	n/a	n/a	n/a	n/a
17852.98577	1.491589417	1	80	1	9	5	8	3	n/a	n/a	n/a	n/a
17854.47736	1.489215875	1	81	1	9	5	9	3	n/a	n/a	n/a	n/a
17855.96657	1.488513833	1	82	1	9	5	10	3	n/a	n/a	n/a	n/a
17857.45509	2.444385042	1	83	1	9	5	11	3	n/a	n/a	n/a	n/a
17859.89947	1.490467708	1	84	1	9	5	12	3	n/a	n/a	n/a	n/a
17861.38994	1.610585584	1	85	1	5	6	1	1	15	n/a	17862.06913	n/a
17863.00053	1.489062708	1	86	1	5	6	2	1	15	n/a	17863.55899	n/a
17864.48959	1.505012375	1	87	1	5	6	3	1	15	n/a	17865.0478	n/a
17865.9946	1.4953125	1	88	1	5	6	4	2	15	n/a	17866.55395	n/a
17867.48991	1.512129625	1	89	1	5	6	5	2	15	n/a	17868.05686	n/a
17869.00204	1.560320625	1	90	1	5	6	6	1	15	n/a	17869.58234	n/a
17870.56236	1.517120167	1	91	1	5	6	7	2	15	n/a	17871.13934	n/a
17872.07948	1.515217291	1	92	1	5	6	8	1	15	n/a	17872.66212	n/a
17873.5947	1.534018584	1	93	1	5	6	9	2	15	n/a	17874.17722	n/a
17875.12872	1.551185541	1	94	1	5	6	10	2	15	n/a	17875.72832	n/a
17876.67991	1.539508584	1	95	1	5	6	11	2	15	n/a	17877.27056	n/a
17878.21941	1.553168	1	96	1	5	6	12	1	15	n/a	17878.83475	n/a
17879.77258	1.554852	1	97	1	5	6	13	1	15	n/a	17880.37551	n/a
17881.32743	1.547423291	1	98	1	5	6	14	2	15	n/a	17881.91388	n/a
17882.87486	1.552273542	1	99	1	5	6	15	2	15	n/a	17883.47636	n/a
17884.42713	1.585486083	1	100	1	5	6	16	2	15	n/a	17885.0194	n/a
17886.01262	1.536642584	1	101	1	5	6	17	2	15	n/a	17886.60365	n/a
17887.54926	1.516053458	1	102	1	5	6	18	1	15	n/a	17888.1304	n/a
17889.06531	1.540735	1	103	1	5	6	19	1	15	n/a	17889.63082	n/a
17890.60605	1.503553167	1	104	1	5	6	20	2	15	n/a	17891.17614	n/a
17892.1096	1.522381083	1	105	1	5	6	21	2	15	n/a	17892.69281	n/a
17893.63198	1.489514	1	106	1	5	6	22	1	15	n/a	17894.19055	n/a
17895.1215	1.55190825	1	107	1	5	6	23	2	15	n/a	17895.74115	n/a
17896.6734	1.490185083	1	108	1	5	6	24	1	15	n/a	17897.23172	n/a
17898.16359	1.489827667	1	109	1	9	7	1	3	n/a	n/a	n/a	n/a
17899.65342	1.492840208	1	110	1	9	7	2	3	n/a	n/a	n/a	n/a
17901.14626	1.489189542	1	111	1	9	7	3	3	n/a	n/a	n/a	n/a
17902.63545	1.489635792	1	112	1	9	7	4	3	n/a	n/a	n/a	n/a
17904.12508	1.491115041	1	113	1	9	7	5	3	n/a	n/a	n/a	n/a
17905.6162	1.491144125	1	114	1	9	7	6	3	n/a	n/a	n/a	n/a
17907.10734	1.489915125	1	115	1	9	7	7	3	n/a	n/a	n/a	n/a
17908.59726	1.489447584	1	116	1	9	7	8	3	n/a	n/a	n/a	n/a
17910.08671	1.490784583	1	117	1	9	7	9	3	n/a	n/a	n/a	n/a
17911.57749	1.48920475	1	118	1	9	7	10	3	n/a	n/a	n/a	n/a
17913.06669	1.490889125	1	119	1	9	7	11	3	n/a	n/a	n/a	n/a
17914.55758	1.492838667	1	120	1	9	7	12	3	n/a	n/a	n/a	n/a
17916.05042	1.490116791	1	121	1	7	8	1	2	15	n/a	17916.60884	n/a
17917.54054	1.490218292	1	122	1	7	8	2	2	15	n/a	17918.09957	n/a
17919.03076	1.513373583	1	123	1	7	8	3	1	15	n/a	17919.5897	n/a
17920.54413	1.500436167	1	124	1	7	8	4	2	15	n/a	17921.10498	n/a
17922.04457	1.499220917	1	125	1	7	8	5	2	15	n/a	17922.61069	n/a
17923.54379	1.50014175	1	126	1	7	8	6	2	15	n/a	17924.10911	n/a
17925.04393	1.514318291	1	127	1	7	8	7	1	15	n/a	17925.61913	n/a
17926.55825	1.548623042	1	128	1	7	8	8	2	15	n/a	17927.1679	n/a
17928.10687	1.505631458	1	129	1	7	8	9	1	15	n/a	17928.67437	n/a
17929.6125	1.512848084	1	130	1	7	8	10	1	15	n/a	17930.18462	n/a
17931.12535	1.526022458	1	131	1	7	8	11	2	15	n/a	17931.71486	n/a
17932.65137	1.517299917	1	132	1	7	8	12	1	15	n/a	17933.2285	n/a
17934.16867	1.556817125	1	133	1	7	8	13	1	15	n/a	17934.73916	n/a
17935.72549	1.508952208	1	134	1	7	8	14	2	15	n/a	17936.29342	n/a
17937.23444	1.507794333	1	135	1	7	8	15	1	15	n/a	17937.8062	n/a
17938.74224	1.51135875	1	136	1	7	8	16	1	15	n/a	17939.32318	n/a
17940.2536	1.587827084	1	137	1	7	8	17	2	15	n/a	17940.88315	n/a
17941.84142	1.526411791	1	138	1	7	8	18	1	15	n/a	17942.43629	n/a
17943.36783	1.508190459	1	139	1	7	8	19	2	15	n/a	17943.93434	n/a
17944.87602	1.493268708	1	140	1	7	8	20	2	15	n/a	17945.43909	n/a
17946.36929	1.499892333	1	141	1	7	8	21	2	15	n/a	17946.93239	n/a
17947.86919	1.49255575	1	142	1	7	8	22	2	15	n/a	17948.4283	n/a
17949.36174	1.493688042	1	143	1	7	8	23	2	15	n/a	17949.92454	n/a
17950.85543	1.524350708	1	144	1	7	8	24	1	15	n/a	17951.4487	n/a
17952.37978	1.494344334	1	145	1	9	9	1	3	n/a	n/a	n/a	n/a
17953.87412	1.489985541	1	146	1	9	9	2	3	n/a	n/a	n/a	n/a
17955.36411	1.489233209	1	147	1	9	9	3	3	n/a	n/a	n/a	n/a
17956.85334	1.489446208	1	148	1	9	9	4	3	n/a	n/a	n/a	n/a
17958.34279	1.49206275	1	149	1	9	9	5	3	n/a	n/a	n/a	n/a
17959.83485	1.511045417	1	150	1	9	9	6	3	n/a	n/a	n/a	n/a
17961.3459	1.491083083	1	151	1	9	9	7	3	n/a	n/a	n/a	n/a
17962.83698	1.488625458	1	152	1	9	9	8	3	n/a	n/a	n/a	n/a
17964.32561	1.563948417	1	153	1	9	9	9	3	n/a	n/a	n/a	n/a
17965.88955	1.49058125	1	154	1	9	9	10	3	n/a	n/a	n/a	n/a
17967.38014	1.488777792	1	155	1	9	9	11	3	n/a	n/a	n/a	n/a
17968.86891	1.489550708	1	156	1	9	9	12	3	n/a	n/a	n/a	n/a
